aX,aY,aZ,gX,gY,gZ
-1.010,-1.698,0.223,4.150,-24.048,139.404
-1.063,-1.894,0.185,14.832,-29.846,123.718
-1.120,-2.022,0.130,13.855,-30.518,101.379
-1.159,-2.099,0.073,4.578,-27.222,74.707
-1.187,-2.136,0.022,-7.263,-21.484,46.936
-1.195,-2.128,-0.010,-16.357,-14.404,20.691
-1.174,-2.080,-0.027,-17.212,-6.775,-3.723
-1.135,-1.999,-0.018,-9.827,0.366,-27.283
-1.085,-1.893,0.009,0.854,6.958,-48.828
-1.023,-1.785,0.041,10.620,12.085,-67.932
-0.961,-1.669,0.075,19.043,15.442,-84.656
-0.906,-1.550,0.108,26.611,17.212,-99.182
-0.858,-1.437,0.151,34.363,17.273,-111.084
-0.813,-1.327,0.205,42.480,14.893,-121.460
-0.769,-1.213,0.270,50.842,10.559,-131.226
-0.734,-1.094,0.334,59.509,5.493,-141.296
-0.712,-0.972,0.380,67.749,0.610,-151.123
-0.707,-0.858,0.420,73.914,-2.441,-159.973
-0.698,-0.742,0.446,77.576,-4.517,-168.396
-0.683,-0.602,0.461,80.139,-5.188,-178.040
-0.650,-0.423,0.472,83.618,-3.845,-189.453
-0.598,-0.203,0.483,85.999,-1.709,-202.454
-0.517,0.054,0.485,83.191,1.831,-215.210
-0.426,0.325,0.488,72.632,6.287,-225.952
-0.352,0.582,0.460,56.213,9.583,-231.262
-0.265,0.973,0.379,24.170,12.146,-223.694
-0.285,1.064,0.326,12.939,11.902,-212.158
-0.318,1.100,0.249,6.165,10.986,-196.472
-0.341,1.119,0.182,4.089,9.949,-180.115
-0.336,1.155,0.147,8.667,10.315,-166.565
-0.332,1.245,0.140,21.240,10.010,-155.701
-0.334,1.338,0.135,40.771,7.019,-145.874
-0.344,1.409,0.142,57.678,3.113,-134.521
-0.364,1.440,0.155,64.453,1.770,-120.117
-0.398,1.409,0.180,60.120,3.967,-102.295
-0.431,1.328,0.194,50.171,8.545,-83.496
-0.485,1.225,0.199,41.199,12.939,-67.017
-0.550,1.115,0.203,35.339,14.526,-54.749
-0.614,1.005,0.221,29.724,14.709,-46.265
-0.666,0.920,0.226,24.719,14.709,-39.185
-0.711,0.866,0.225,24.719,13.245,-33.997
-0.743,0.848,0.225,30.212,10.437,-30.029
-0.768,0.832,0.233,35.095,7.751,-26.184
-0.783,0.819,0.235,33.875,6.714,-21.912
-0.798,0.811,0.241,26.917,7.690,-18.066
-0.816,0.795,0.251,17.517,10.559,-15.503
-0.831,0.785,0.262,8.301,13.855,-13.184
-0.834,0.776,0.274,1.770,16.113,-10.376
-0.832,0.753,0.296,-2.014,17.395,-7.385
-0.829,0.730,0.315,-3.052,17.212,-4.089
-0.825,0.709,0.335,-2.075,15.564,14.343
-0.829,0.671,0.346,0.488,9.399,5.859
-0.840,0.643,0.347,0.549,6.775,9.827
-0.845,0.607,0.347,0.061,5.066,13.916
-0.848,0.570,0.346,-0.427,3.967,17.090
-0.857,0.531,0.350,-1.404,3.296,19.531
-0.862,0.488,0.357,-2.625,2.930,21.240
-0.867,0.447,0.365,-3.113,2.441,22.339
-0.875,0.408,0.370,-2.441,1.831,22.583
-0.885,0.376,0.366,-1.526,0.977,21.851
-0.893,0.353,0.360,-0.916,0.061,20.996
-0.902,0.333,0.350,-0.732,-0.793,20.020
-0.904,0.315,0.335,-1.221,-1.404,18.982
-0.905,0.308,0.323,-2.075,-1.770,17.700
-0.908,0.302,0.314,-2.930,-2.136,16.357
-0.913,0.297,0.305,-3.418,-2.136,15.137
-0.914,0.296,0.295,-4.333,-2.258,14.038
-0.912,0.300,0.287,-5.737,-2.075,12.268
-0.904,0.308,0.275,-7.446,-1.709,10.376
-0.896,0.325,0.267,-10.193,-0.977,8.484
-0.886,0.351,0.264,-13.184,0.305,6.409
-0.875,0.378,0.260,-15.564,1.770,5.188
-0.869,0.399,0.261,-16.785,2.747,4.883
-0.863,0.414,0.272,-16.357,2.869,5.127
-0.858,0.422,0.282,-13.672,1.953,6.042
-0.855,0.421,0.286,-9.827,-0.183,7.507
-0.855,0.415,0.284,-6.592,-2.075,9.094
-0.864,0.405,0.276,-4.456,-3.784,10.376
-0.871,0.394,0.267,-3.296,-5.188,11.475
-0.884,0.382,0.257,-2.869,-5.615,11.963
-0.898,0.369,0.244,-2.502,-5.493,11.841
-0.908,0.358,0.237,-2.197,-4.883,11.169
-0.912,0.348,0.232,-2.197,-3.906,9.644
-0.913,0.347,0.230,-1.831,-2.869,7.507
-0.911,0.353,0.232,-0.610,-2.197,4.883
-0.906,0.363,0.236,0.671,-1.831,2.747
-0.899,0.371,0.240,1.404,-1.648,1.221
-0.894,0.380,0.239,1.831,-1.709,0.427
-0.890,0.383,0.237,2.014,-1.892,-0.122
-0.885,0.387,0.233,2.563,-2.197,-0.427
-0.883,0.390,0.227,3.235,-2.380,-0.916
-0.882,0.397,0.222,3.662,-1.892,-1.038
-0.880,0.398,0.224,3.723,-1.343,-0.977
-0.876,0.397,0.229,3.784,-0.488,-0.793
-0.869,0.397,0.239,3.662,0.183,-0.854
-0.865,0.399,0.249,4.150,0.549,-1.038
-0.862,0.399,0.255,5.066,0.244,-1.282
-0.859,0.403,0.261,6.226,-0.366,-1.587
-0.860,0.398,0.262,7.568,-1.099,-1.587
-0.857,0.397,0.260,8.057,-1.465,-1.709
-0.858,0.398,0.257,7.568,-1.709,-1.770
-0.857,0.398,0.253,6.409,-1.831,-1.892
-0.857,0.397,0.254,5.310,-1.587,-2.136
-0.856,0.402,0.253,4.028,-1.160,-2.258
-0.854,0.408,0.252,2.686,-0.549,-2.563
-0.854,0.415,0.251,1.709,-0.122,-2.441
-0.855,0.422,0.249,1.892,-0.061,-2.380
-0.856,0.428,0.248,2.747,-0.244,-1.892
-0.858,0.430,0.247,3.418,-0.488,-1.343
-0.865,0.428,0.238,4.211,-0.916,0.183
-0.875,0.414,0.227,5.432,-1.038,0.610
-0.878,0.404,0.228,4.944,-0.244,0.732
-0.876,0.400,0.235,3.845,1.038,0.732
-0.874,0.397,0.244,2.869,2.075,0.183
-0.872,0.400,0.251,1.770,2.747,-0.427
-0.874,0.404,0.254,0.671,2.930,-0.793
-0.875,0.407,0.252,-0.793,2.625,-0.916
-0.878,0.410,0.249,-1.404,2.075,-0.977
-0.879,0.412,0.243,-1.160,1.587,-0.671
-0.903,1.732,-0.157,-12.390,1.709,-90.515
-0.924,1.834,-0.188,-19.043,2.075,-74.524
-0.938,1.869,-0.210,-13.428,6.104,-50.842
-0.943,1.847,-0.218,-2.563,13.550,-24.719
-0.951,1.797,-0.214,5.371,23.010,-0.305
-0.953,1.737,-0.177,6.104,32.715,20.264
-0.949,1.685,-0.117,-0.427,40.588,36.133
-0.950,1.659,-0.064,-11.475,44.739,47.363
-0.950,1.653,-0.009,-27.344,46.570,55.420
-0.951,1.659,0.049,-47.607,46.753,62.866
-0.960,1.652,0.118,-68.542,44.922,70.923
-0.960,1.606,0.186,-84.839,41.321,80.933
-0.967,1.524,0.238,-93.140,36.743,94.299
-0.970,1.408,0.272,-92.834,31.982,110.779
-0.964,1.263,0.288,-87.646,27.405,127.686
-0.964,1.090,0.300,-82.153,22.705,144.043
-0.955,0.937,0.313,-79.407,17.700,157.715
-0.934,0.800,0.337,-80.933,13.916,168.457
-0.893,0.665,0.387,-85.571,10.803,178.589
-0.843,0.498,0.453,-91.492,7.812,189.453
-0.787,0.307,0.529,-95.154,4.578,200.012
-0.723,0.105,0.590,-92.529,-0.244,209.229
-0.655,-0.130,0.621,-85.022,-6.836,217.896
-0.599,-0.367,0.617,-76.355,-15.442,224.976
-0.549,-0.584,0.565,-65.247,-25.024,228.821
-0.513,-0.754,0.488,-51.147,-33.875,228.149
-0.480,-0.854,0.375,-34.912,-39.795,222.290
-0.445,-0.889,0.250,-18.860,-41.870,213.379
-0.419,-0.902,0.143,-5.127,-40.344,203.918
-0.395,-0.912,0.060,0.916,-37.781,193.665
-0.371,-0.943,0.006,-2.930,-35.767,181.396
-0.354,-0.999,-0.023,-16.541,-35.522,167.480
-0.355,-1.083,-0.056,-35.950,-37.476,152.283
-0.356,-1.135,-0.097,-55.786,-41.199,135.376
-0.369,-1.148,-0.164,-70.007,-42.969,117.981
-0.380,-1.146,-0.230,-77.637,-40.894,101.013
-0.402,-1.113,-0.283,-80.750,-34.851,87.463
-0.427,-1.096,-0.302,-76.843,-26.184,77.515
-0.445,-1.132,-0.315,-66.223,-15.198,68.481
-0.487,-1.002,-0.262,-57.373,-2.319,62.927
-0.542,-0.995,-0.195,-47.302,3.845,63.843
-0.559,-1.060,-0.137,-31.372,9.521,48.401
-0.604,-1.048,-0.119,-21.851,18.616,37.354
-0.645,-1.047,-0.066,-17.212,21.179,28.992
-0.676,-1.032,-0.006,-16.235,18.494,19.226
-0.709,-1.021,0.012,-14.526,16.235,12.573
-0.739,-1.015,0.017,-11.047,13.489,7.385
-0.760,-1.001,-0.012,-8.484,11.475,2.258
-0.802,-0.971,-0.011,-7.629,11.230,-2.869
-0.827,-0.927,0.002,-8.484,9.033,-7.874
-0.846,-0.867,0.009,-11.292,8.118,-12.756
-0.867,-0.805,0.025,-12.756,8.301,-16.968
-0.891,-0.746,0.034,-10.620,7.751,-20.691
-0.912,-0.692,0.047,-6.409,6.165,-23.071
-0.923,-0.650,0.046,-2.136,5.005,-24.414
-0.936,-0.617,0.050,1.953,4.089,-25.940
-0.942,-0.585,0.048,5.432,2.075,-26.917
-0.950,-0.550,0.024,5.737,0.610,-27.161
-0.960,-0.528,0.016,4.761,-0.061,-27.771
-0.959,-0.511,0.019,5.005,-2.136,-28.748
-0.956,-0.489,0.017,6.409,-3.540,-29.053
-0.953,-0.463,0.016,9.155,-3.967,-29.785
-0.947,-0.439,0.006,11.475,-4.150,-29.785
-0.941,-0.415,-0.000,11.841,-3.906,-29.297
-0.938,-0.397,-0.007,10.864,-3.235,-27.832
-0.928,-0.376,-0.010,8.667,-2.747,-25.635
-0.923,-0.373,-0.009,5.493,-2.258,-22.217
-0.918,-0.377,-0.005,3.540,-1.709,-18.921
-0.918,-0.386,-0.002,3.540,-0.732,-15.991
-0.915,-0.388,-0.000,4.700,0.061,-14.343
-0.913,-0.386,0.004,5.432,0.793,-13.855
-0.914,-0.385,0.012,5.554,1.099,-13.977
-0.910,-0.386,0.023,5.920,1.099,-14.221
-0.907,-0.384,0.031,6.409,0.732,-14.587
-0.911,-0.367,0.036,6.653,0.183,-14.771
-0.912,-0.344,0.036,6.348,-0.732,-14.465
-0.915,-0.329,0.021,4.272,-0.977,-13.733
-0.930,-0.321,0.022,1.038,-1.221,-12.207
-0.935,-0.322,0.011,-0.610,-1.892,-9.827
-0.939,-0.326,-0.001,-0.122,-1.404,-7.019
-0.940,-0.336,-0.018,2.014,-0.610,-3.967
-0.938,-0.348,-0.028,5.066,0.183,-1.221
-0.936,-0.368,-0.036,7.385,1.221,1.526
-0.932,-0.390,-0.036,7.263,1.587,3.357
-0.930,-0.410,-0.029,5.066,1.465,4.395
-0.928,-0.426,-0.029,1.953,0.977,4.272
-0.926,-0.439,-0.024,-1.160,-0.122,2.625
-0.923,-0.442,-0.021,-3.723,-1.282,0.610
-0.922,-0.439,-0.020,-4.578,-2.502,-0.854
-0.922,-0.437,-0.030,-2.747,-2.808,-1.648
-0.920,-0.433,-0.042,0.183,-2.502,-1.953
-0.923,-0.431,-0.050,2.258,-1.953,-2.197
-0.925,-0.427,-0.055,3.174,-1.160,-2.258
-0.925,-0.423,-0.052,3.174,-0.244,-2.197
-0.922,-0.420,-0.044,2.930,0.732,-1.831
-0.922,-0.420,-0.033,2.136,1.343,-1.587
-0.923,-0.428,-0.023,0.977,1.465,-1.343
-0.922,-0.434,-0.016,0.122,1.160,-0.977
-0.922,-0.437,-0.013,-0.122,0.977,-1.160
-0.924,-0.440,-0.015,0.305,0.854,-1.587
-0.921,-0.438,-0.013,0.549,0.488,-2.136
-0.923,-0.433,-0.010,0.183,0.183,-2.808
-0.923,-0.423,-0.005,-0.305,-0.061,-3.479
-0.927,-0.411,-0.000,-0.671,-0.488,-4.211
-0.930,-0.398,0.001,-1.038,-1.160,-4.700
-0.934,-0.390,0.001,-1.038,-1.770,-4.639
-0.935,-0.386,-0.002,-0.366,-2.258,-3.906
-0.936,-0.390,-0.002,0.549,-2.441,-2.747
-0.939,-0.400,-0.003,1.282,-2.625,-1.404
-0.937,-0.410,-0.003,1.770,-2.563,-0.671
-0.933,-0.420,-0.005,2.075,-2.502,-0.427
-0.928,-0.427,-0.008,2.014,-2.563,-0.732
-0.924,-0.430,-0.013,2.014,-2.869,-1.099
-0.924,-0.429,-0.020,2.136,-3.174,-1.587
-0.922,-0.425,-0.022,2.441,-2.991,-2.258
-0.922,-0.419,-0.028,2.258,-2.686,-2.686
-0.921,-0.416,-0.031,1.099,-2.747,-2.991
-0.919,-0.414,-0.033,-0.488,-2.747,-3.174
-0.918,-0.417,-0.034,-1.343,-2.441,-3.113

-0.969,-1.625,0.281,4.089,-32.837,151.428
-1.005,-1.692,0.191,0.000,-38.879,129.944
-1.039,-1.700,0.071,-19.287,-38.818,105.835
-1.080,-1.641,-0.057,-43.945,-33.630,83.313
-1.103,-1.573,-0.158,-59.021,-24.170,64.331
-1.112,-1.536,-0.204,-58.044,-13.123,50.110
-1.112,-1.574,-0.205,-41.382,-3.174,41.260
-1.093,-1.656,-0.167,-14.709,3.906,35.461
-1.083,-1.758,-0.108,14.404,8.728,28.259
-1.078,-1.834,-0.056,37.903,11.536,16.846
-1.072,-1.861,-0.014,49.866,14.404,1.038
-1.079,-1.844,0.011,49.927,18.921,-17.151
-1.073,-1.784,0.071,31.189,31.128,-55.054
-1.043,-1.614,0.114,26.062,36.255,-71.899
-1.029,-1.525,0.170,28.320,38.635,-86.975
-0.995,-1.428,0.231,36.926,37.903,-101.685
-0.951,-1.317,0.299,47.485,35.767,-117.493
-0.899,-1.180,0.370,54.016,33.691,-132.996
-0.842,-1.017,0.444,54.749,32.532,-148.865
-0.779,-0.825,0.515,52.368,32.654,-164.917
-0.703,-0.600,0.588,50.049,32.532,-179.993
-0.627,-0.365,0.648,48.889,31.189,-192.261
-0.552,-0.119,0.682,50.171,28.015,-200.317
-0.491,0.107,0.696,53.833,22.339,-203.979
-0.451,0.304,0.677,57.068,15.381,-203.491
-0.428,0.463,0.620,56.213,8.423,-200.012
-0.417,0.581,0.535,50.110,2.808,-195.312
-0.394,0.687,0.458,39.734,0.732,-190.186
-0.374,0.792,0.389,29.663,2.014,-185.608
-0.361,0.894,0.340,22.278,4.944,-180.603
-0.358,0.969,0.316,17.578,8.667,-174.133
-0.340,1.016,0.313,15.869,13.306,-165.833
-0.324,1.068,0.319,18.616,16.418,-156.799
-0.332,1.105,0.323,26.855,15.503,-146.790
-0.341,1.114,0.321,39.001,11.353,-134.888
-0.354,1.106,0.317,51.514,5.798,-122.437
-0.374,1.083,0.309,58.594,0.305,-110.413
-0.395,1.054,0.301,56.946,-3.296,-99.060
-0.426,1.033,0.285,48.035,-4.150,-89.539
-0.466,1.030,0.252,35.889,-3.418,-81.787
-0.516,1.027,0.212,24.780,-2.197,-75.256
-0.558,1.012,0.177,16.968,-0.732,-68.359
-0.599,0.978,0.164,12.207,1.892,-61.035
-0.629,0.951,0.165,11.475,4.700,-53.772
-0.656,0.919,0.175,16.602,6.042,-47.180
-0.679,0.889,0.201,23.376,5.676,-41.260
-0.712,0.849,0.226,28.625,4.639,-35.034
-0.715,0.793,0.231,30.396,3.845,-28.381
-0.788,0.775,0.297,28.259,-2.563,-20.996
-0.767,0.698,0.364,26.062,-7.812,-16.113
-0.786,0.656,0.265,25.818,-3.235,-17.395
-0.829,0.689,0.237,20.020,9.521,-18.616
-0.841,0.675,0.248,9.033,14.587,-17.822
-0.817,0.698,0.282,-4.822,17.395,-15.320
-0.808,0.709,0.328,-13.184,20.081,-13.062
-0.806,0.720,0.349,-13.916,21.423,-11.597
-0.810,0.730,0.365,-8.423,20.874,-9.827
-0.820,0.724,0.383,-2.502,18.494,-6.531
-0.826,0.697,0.405,1.770,14.954,-1.953
-0.830,0.659,0.425,4.517,11.414,2.869
-0.841,0.618,0.441,6.409,7.812,6.958
-0.855,0.576,0.447,7.568,4.822,9.827
-0.864,0.542,0.445,8.118,2.502,11.230
-0.870,0.521,0.445,7.385,1.282,11.169
-0.876,0.505,0.448,4.822,1.343,10.132
-0.883,0.495,0.452,0.366,2.075,9.521
-0.884,0.482,0.451,-4.578,3.052,9.521
-0.882,0.469,0.448,-7.751,3.296,9.705
-0.879,0.460,0.438,-9.155,2.563,10.071
-0.873,0.455,0.423,-10.193,1.099,10.498
-0.873,0.454,0.402,-10.498,-0.366,10.925
-0.876,0.453,0.380,-10.254,-1.465,11.597
-0.873,0.449,0.362,-10.071,-2.075,12.573
-0.868,0.445,0.351,-9.766,-2.502,13.550
-0.862,0.441,0.343,-8.423,-3.052,14.771
-0.847,0.437,0.328,-7.263,-3.662,14.893
-0.840,0.439,0.325,-7.996,-3.357,14.404
-0.836,0.443,0.325,-9.277,-2.808,13.733
-0.833,0.447,0.324,-10.376,-2.319,13.428
-0.834,0.443,0.324,-10.681,-2.258,13.672
-0.834,0.431,0.327,-9.521,-2.563,14.282
-0.836,0.417,0.329,-7.324,-3.479,14.771
-0.839,0.401,0.324,-4.395,-4.883,15.015
-0.839,0.391,0.318,-1.953,-6.348,14.587
-0.840,0.387,0.314,-0.427,-7.263,13.855
-0.842,0.380,0.310,-0.244,-7.507,12.695
-0.841,0.376,0.302,-1.221,-7.568,11.230
-0.843,0.373,0.293,-2.441,-7.141,10.010
-0.845,0.369,0.285,-3.357,-6.958,8.728
-0.849,0.366,0.274,-3.845,-6.775,7.874
-0.852,0.363,0.268,-3.601,-6.287,7.080
-0.854,0.361,0.262,-2.930,-5.676,6.165
-0.856,0.366,0.257,-2.563,-4.883,5.249
-0.857,0.369,0.255,-1.953,-4.150,4.578
-0.855,0.377,0.254,-0.732,-3.601,3.662
-0.850,0.382,0.257,0.366,-2.930,3.052
-0.847,0.386,0.261,0.549,-1.953,2.441
-0.842,0.386,0.265,0.244,-1.282,2.014
-0.839,0.388,0.272,-0.122,-0.793,1.587
-0.839,0.391,0.277,-0.610,-0.549,1.099
-0.837,0.396,0.278,-0.732,-0.610,0.977
-0.838,0.397,0.278,-0.366,-0.977,0.916
-0.840,0.402,0.274,0.610,-1.465,1.038
-0.840,0.409,0.266,1.953,-1.892,1.221
-0.841,0.418,0.261,3.479,-2.014,1.282
-0.838,0.428,0.259,4.150,-1.709,1.221
-0.836,0.434,0.261,3.723,-0.977,1.282
-0.837,0.433,0.270,2.869,0.488,1.526
-0.838,0.430,0.282,1.770,1.831,2.136
-0.838,0.425,0.294,1.648,2.502,2.441
-0.841,0.422,0.302,1.709,2.563,2.625
-0.847,0.420,0.307,1.221,2.319,2.808
-0.851,0.417,0.311,0.610,2.136,2.991
-0.858,0.408,0.313,0.244,1.892,3.113
-0.864,0.398,0.315,0.244,1.465,3.296
-0.867,0.382,0.318,0.793,1.099,3.540
-0.872,0.369,0.318,1.709,0.427,3.357
-0.874,0.358,0.316,2.319,-0.366,3.113
-0.879,0.355,0.313,2.686,-0.977,2.319
-1.036,1.918,0.141,31.982,8.972,-131.653
-1.074,2.182,0.125,10.437,-0.244,-120.300
-1.102,2.373,0.070,1.282,-9.094,-97.900
-1.126,2.443,-0.001,0.244,-17.212,-64.209
-1.141,2.381,-0.093,5.493,-22.949,-24.841
-1.143,2.245,-0.181,12.939,-25.024,11.597
-1.137,2.074,-0.261,15.503,-22.888,41.382
-1.128,1.911,-0.322,7.935,-17.334,62.866
-1.105,1.759,-0.342,-9.338,-8.606,76.294
-1.079,1.640,-0.326,-32.471,1.404,84.595
-1.044,1.565,-0.287,-55.298,11.475,90.088
-1.011,1.524,-0.237,-72.998,20.935,95.337
-0.973,1.471,-0.177,-84.656,29.236,102.966
-0.945,1.382,-0.105,-91.614,36.255,113.770
-0.920,1.248,-0.028,-93.323,40.894,126.221
-0.913,1.086,0.046,-90.088,42.969,138.489
-0.911,0.915,0.121,-84.167,41.809,148.743
-0.896,0.752,0.190,-78.979,37.781,157.043
-0.873,0.601,0.256,-77.881,32.654,163.452
-0.845,0.450,0.323,-82.520,27.283,169.495
-0.806,0.293,0.373,-89.844,22.217,175.293
-0.769,0.139,0.425,-94.360,18.982,181.213
-0.719,-0.019,0.442,-93.384,16.663,186.951
-0.668,-0.185,0.461,-88.196,15.381,191.589
-0.620,-0.364,0.484,-82.397,14.832,195.374
-0.570,-0.531,0.511,-77.332,14.771,196.655
-0.524,-0.687,0.552,-71.777,13.611,194.214
-0.484,-0.820,0.571,-64.636,10.437,187.683
-0.448,-0.910,0.567,-55.542,5.371,177.551
-0.416,-0.958,0.523,-42.358,-1.038,166.626
-0.404,-0.966,0.447,-25.391,-7.324,155.945
-0.410,-0.976,0.337,-12.390,-12.573,145.386
-0.417,-0.980,0.234,-11.963,-18.250,133.362
-0.427,-0.997,0.151,-22.278,-24.048,120.117
-0.439,-1.007,0.097,-36.377,-27.893,105.713
-0.456,-0.998,0.068,-47.363,-27.710,91.248
-0.480,-0.964,0.051,-51.575,-23.743,77.759
-0.502,-0.920,0.049,-49.683,-18.372,67.566
-0.517,-0.880,0.052,-42.969,-13.428,61.157
-0.531,-0.860,0.060,-33.997,-9.155,57.312
-0.574,-0.862,0.067,-23.132,-6.836,55.237
-0.583,-0.807,0.147,-8.606,-9.521,57.434
-0.577,-0.890,0.094,15.259,-11.414,53.101
-0.622,-0.914,0.065,30.029,-7.019,46.021
-0.643,-1.028,0.028,27.466,-6.470,44.312
-0.657,-1.023,0.031,15.137,-9.766,37.598
-0.665,-1.063,0.042,5.554,-13.000,25.208
-0.673,-1.179,0.076,-8.118,-13.367,16.113
-0.705,-1.187,0.116,-15.991,-17.456,5.188
-0.686,-1.189,0.093,-11.047,-16.846,-6.897
-0.733,-1.151,0.093,-2.869,-16.052,-17.029
-0.784,-1.063,0.116,2.563,-17.029,-24.536
-0.820,-0.970,0.092,-0.305,-14.954,-29.175
-0.868,-0.872,0.090,-7.996,-13.794,-31.677
-0.905,-0.783,0.090,-11.536,-15.686,-32.166
-0.934,-0.694,0.063,-6.470,-16.113,-32.043
-0.948,-0.586,0.018,3.052,-14.648,-31.250
-0.966,-0.477,-0.031,13.184,-10.559,-30.090
-0.998,-0.403,-0.030,22.217,-9.277,-28.870
-0.994,-0.344,-0.050,22.705,-7.874,-25.085
-0.998,-0.328,-0.050,19.531,-5.432,-21.179
-0.991,-0.325,-0.050,18.005,-3.418,-17.456
-0.984,-0.337,-0.041,18.127,-1.221,-13.489
-0.974,-0.358,-0.036,17.395,0.183,-10.376
-0.954,-0.382,-0.028,15.503,1.099,-7.690
-0.934,-0.410,-0.020,14.343,1.404,-5.127
-0.911,-0.423,-0.021,14.221,1.587,-3.235
-0.887,-0.450,-0.020,13.611,1.892,-1.831
-0.875,-0.480,-0.015,11.536,2.747,-0.977
-0.869,-0.505,-0.005,9.033,3.296,-1.282
-0.869,-0.517,0.003,6.775,3.540,-3.113
-0.877,-0.508,0.020,4.211,3.967,-6.226
-0.881,-0.486,0.040,1.892,3.845,-10.071
-0.888,-0.455,0.054,0.549,3.967,-13.855
-0.892,-0.425,0.076,0.671,3.662,-16.296
-0.891,-0.406,0.083,2.075,2.930,-17.517
-0.901,-0.394,0.078,4.517,2.869,-17.334
-0.906,-0.386,0.070,6.714,2.930,-16.785
-0.917,-0.377,0.061,7.935,2.319,-15.930
-0.924,-0.365,0.054,7.263,1.465,-15.564
-0.929,-0.350,0.057,4.639,0.305,-15.137
-0.938,-0.337,0.058,2.075,-1.221,-14.038
-0.941,-0.337,0.053,-0.244,-3.113,-12.268
-0.943,-0.345,0.043,-1.526,-4.883,-9.949
-0.947,-0.357,0.025,-1.099,-5.798,-6.775
-0.948,-0.364,0.003,0.061,-5.676,-4.395
-0.957,-0.375,-0.001,0.671,-5.310,-3.296
-0.949,-0.363,-0.004,-0.488,-4.883,-2.563
-0.951,-0.366,0.004,-1.648,-3.601,-2.197
-0.947,-0.382,0.013,-1.099,-3.418,-2.380
-0.949,-0.390,0.021,0.061,-3.784,-2.075
-0.946,-0.401,0.020,1.587,-4.272,-2.075
-0.946,-0.411,0.011,3.540,-4.456,-2.258
-0.946,-0.419,-0.001,5.371,-4.639,-2.808
-0.943,-0.422,-0.011,6.226,-4.456,-3.357
-0.940,-0.418,-0.015,5.676,-4.211,-4.211
-0.937,-0.422,-0.015,3.845,-3.906,-5.127
-0.932,-0.429,-0.009,1.099,-3.784,-5.432
-0.928,-0.433,0.000,-0.366,-3.906,-5.310
-0.929,-0.431,0.001,0.610,-3.906,-5.188
-0.932,-0.424,0.000,2.136,-3.784,-5.310
-0.935,-0.418,0.000,3.052,-3.357,-5.249
-0.937,-0.412,0.005,2.747,-2.808,-5.371
-0.934,-0.410,0.011,1.648,-2.808,-5.737
-0.929,-0.411,0.018,0.977,-2.625,-6.348
-0.925,-0.415,0.023,1.099,-2.441,-6.470
-0.925,-0.420,0.018,1.892,-2.930,-6.042
-0.920,-0.428,0.009,2.869,-3.540,-5.981
-0.914,-0.433,0.000,4.211,-4.089,-5.798
-0.912,-0.431,-0.007,6.226,-4.333,-5.676
-0.918,-0.415,-0.016,7.751,-4.395,-5.981
-0.922,-0.396,-0.025,7.385,-4.333,-7.263
-0.924,-0.377,-0.031,5.798,-4.578,-8.423
-0.927,-0.359,-0.032,4.272,-4.639,-8.789
-0.934,-0.343,-0.037,3.357,-4.395,-8.850
-0.937,-0.332,-0.042,1.953,-4.395,-8.789
-0.938,-0.324,-0.045,-0.061,-4.395,-8.362
-0.940,-0.317,-0.052,-1.404,-4.089,-7.751
-0.937,-0.315,-0.061,-1.465,-3.235,-6.775

-0.899,-1.828,0.262,6.287,-32.410,178.894
-0.971,-2.070,0.213,22.156,-44.189,163.513
-1.049,-2.221,0.126,15.869,-50.964,139.221
-1.113,-2.289,0.020,-4.395,-50.781,109.985
-1.176,-2.274,-0.078,-29.297,-44.006,77.759
-1.206,-2.198,-0.158,-46.204,-32.227,46.326
-1.236,-2.124,-0.204,-49.011,-18.188,19.043
-1.224,-2.049,-0.210,-38.330,-3.784,-2.869
-1.173,-1.961,-0.176,-19.104,8.972,-22.522
-1.103,-1.842,-0.122,3.418,19.531,-41.565
-1.034,-1.717,-0.069,21.973,27.832,-60.364
-0.986,-1.584,-0.018,30.273,34.668,-76.660
-0.941,-1.474,0.029,29.663,40.283,-89.233
-0.919,-1.396,0.092,26.611,43.640,-98.511
-0.899,-1.340,0.165,25.513,44.006,-114.380
-0.853,-1.231,0.331,37.720,36.865,-124.573
-0.811,-1.127,0.403,47.791,31.616,-137.573
-0.771,-0.983,0.476,56.274,28.076,-152.954
-0.715,-0.818,0.545,60.425,27.161,-168.518
-0.646,-0.632,0.612,58.533,27.893,-182.556
-0.572,-0.439,0.665,54.688,28.809,-194.702
-0.499,-0.257,0.702,51.086,28.381,-203.735
-0.438,-0.085,0.716,46.631,25.635,-209.473
-0.389,0.084,0.706,43.274,20.691,-212.708
-0.371,0.225,0.660,42.175,14.160,-213.623
-0.377,0.340,0.588,39.917,7.446,-212.402
-0.374,0.446,0.508,35.400,2.869,-210.388
-0.359,0.539,0.447,29.724,2.441,-209.106
-0.326,0.652,0.416,24.475,5.371,-208.801
-0.268,0.833,0.398,24.597,8.423,-208.801
-0.219,1.042,0.385,32.837,8.850,-208.679
-0.198,1.227,0.373,41.504,6.958,-204.041
-0.199,1.361,0.356,44.922,4.578,-192.383
-0.202,1.444,0.326,43.457,3.357,-174.805
-0.217,1.484,0.296,41.382,3.784,-155.457
-0.245,1.496,0.280,39.795,5.188,-136.230
-0.280,1.472,0.282,38.086,6.226,-117.920
-0.321,1.453,0.283,37.415,5.737,-99.670
-0.363,1.422,0.283,40.955,3.052,-82.764
-0.412,1.389,0.290,46.387,-0.305,-67.200
-0.456,1.349,0.293,51.636,-2.869,-52.307
-0.502,1.302,0.299,55.176,-4.761,-38.940
-0.551,1.241,0.305,55.237,-5.859,-27.161
-0.605,1.167,0.308,50.293,-5.371,-16.785
-0.659,1.086,0.315,42.969,-3.601,-7.751
-0.748,1.049,0.408,35.767,-2.502,-1.221
-0.703,0.979,0.457,29.053,-4.944,5.493
-0.733,0.790,0.386,31.189,-6.104,7.385
-0.823,0.776,0.365,32.227,2.319,2.563
-0.792,0.861,0.415,19.897,4.150,5.737
-0.769,0.706,0.424,6.409,-3.662,11.230
-0.808,0.695,0.384,-1.831,1.770,8.911
-0.852,0.700,0.334,-5.493,10.010,9.338
-0.847,0.680,0.340,-9.888,9.583,12.634
-0.832,0.635,0.355,-12.878,6.958,16.296
-0.829,0.601,0.360,-11.963,6.836,17.700
-0.826,0.574,0.363,-7.507,5.432,17.273
-0.821,0.556,0.361,-1.831,1.953,15.137
-0.790,0.517,0.313,2.869,0.183,13.123
-0.843,0.586,0.399,4.028,3.113,11.841
-0.802,0.509,0.341,1.709,-2.014,15.198
-0.818,0.518,0.387,-0.488,0.183,16.418
-0.828,0.472,0.372,3.113,0.305,17.700
-0.834,0.445,0.393,5.615,0.183,18.494
-0.840,0.415,0.401,6.226,-0.549,20.386
-0.839,0.373,0.408,5.676,-1.465,21.240
-0.846,0.343,0.409,4.517,-1.831,20.630
-0.851,0.317,0.399,1.587,-1.892,19.104
-0.853,0.296,0.389,-2.075,-1.831,16.602
-0.856,0.289,0.373,-5.493,-1.709,13.611
-0.855,0.290,0.358,-9.033,-1.526,10.803
-0.849,0.312,0.344,-12.207,-1.343,7.935
-0.842,0.345,0.329,-14.099,-0.793,5.310
-0.834,0.382,0.317,-15.015,-0.122,3.906
-0.826,0.408,0.312,-15.747,0.793,3.662
-0.814,0.426,0.314,-16.235,1.953,4.395
-0.800,0.438,0.322,-16.235,2.563,5.249
-0.794,0.447,0.328,-16.113,2.319,6.287
-0.793,0.451,0.330,-15.808,1.648,7.629
-0.797,0.449,0.329,-14.893,0.854,9.338
-0.804,0.438,0.327,-13.611,0.061,10.864
-0.813,0.421,0.325,-11.414,-0.916,12.146
-0.833,0.378,0.310,-5.737,-2.808,13.000
-0.841,0.365,0.301,-2.747,-4.089,12.695
-0.853,0.353,0.294,-0.427,-5.188,11.658
-0.863,0.349,0.289,1.099,-5.554,10.498
-0.870,0.346,0.286,2.380,-5.005,9.094
-0.874,0.344,0.283,3.235,-3.845,7.629
-0.878,0.344,0.283,3.113,-2.441,6.042
-0.875,0.344,0.289,2.319,-1.282,4.517
-0.871,0.350,0.296,1.282,-0.061,2.563
-0.862,0.361,0.304,0.000,1.038,0.488
-0.857,0.378,0.316,-0.977,1.709,-1.038
-0.851,0.391,0.322,-0.793,1.404,-1.770
-0.844,0.405,0.325,0.549,0.610,-2.075
-0.840,0.415,0.323,2.197,-0.732,-2.014
-0.840,0.421,0.322,3.357,-1.404,-1.709
-0.837,0.427,0.320,3.540,-1.587,-1.465
-0.836,0.427,0.319,3.662,-1.343,-1.282
-0.835,0.425,0.317,3.052,-1.099,-1.099
-0.834,0.422,0.314,2.319,-0.427,-0.854
-0.833,0.414,0.315,1.770,0.000,-0.671
-0.835,0.406,0.317,1.831,0.427,-0.610
-0.835,0.407,0.321,2.319,0.854,-0.610
-0.831,0.408,0.330,3.296,0.488,-0.793
-0.830,0.408,0.334,3.906,0.305,-1.099
-0.834,0.406,0.336,3.601,0.122,-1.038
-0.835,0.405,0.334,3.052,-0.122,-0.977
-0.838,0.406,0.331,2.930,-0.427,-1.221
-0.838,0.412,0.334,2.563,-0.671,-1.404
-0.836,0.421,0.335,2.197,-0.793,-1.587
-0.835,0.427,0.329,1.587,-0.916,-1.465
-0.839,0.430,0.324,1.282,-1.160,-1.221
-0.841,0.433,0.315,1.465,-1.404,-0.671
-0.843,0.433,0.306,2.930,-1.587,-0.122
-0.845,0.430,0.301,3.967,-1.526,0.427
-0.848,0.424,0.299,3.845,-1.099,1.099
-0.847,0.418,0.300,2.869,-0.061,1.465
-0.849,0.414,0.306,2.014,1.160,1.221
-0.957,1.803,0.174,27.222,-3.052,-145.386
-1.003,1.872,0.118,33.752,-15.991,-114.563
-1.057,1.841,0.022,48.340,-24.719,-83.069
-1.083,1.823,-0.057,59.631,-28.076,-56.885
-1.144,1.866,-0.114,57.495,-26.489,-38.757
-1.181,1.931,-0.155,41.077,-23.682,-26.794
-1.175,1.984,-0.155,19.775,-21.118,-16.296
-1.152,2.003,-0.144,0.732,-17.944,-3.296
-1.110,1.972,-0.135,-10.803,-14.526,14.160
-1.060,1.885,-0.137,-14.343,-11.353,34.668
-1.023,1.762,-0.153,-14.221,-7.751,54.932
-0.998,1.605,-0.170,-16.479,-4.028,72.388
-0.981,1.435,-0.180,-24.292,0.305,85.327
-0.979,1.290,-0.178,-34.668,4.700,92.957
-0.973,1.187,-0.165,-44.922,8.362,95.459
-0.966,1.128,-0.131,-54.321,11.475,95.520
-0.960,1.093,-0.082,-63.171,13.306,95.825
-0.965,1.045,-0.028,-71.228,13.855,97.900
-0.967,0.976,0.040,-77.637,13.367,102.600
-0.973,0.875,0.115,-81.543,11.719,110.168
-0.973,0.772,0.189,-83.557,8.789,118.530
-0.955,0.663,0.251,-85.571,6.042,127.136
-0.934,0.549,0.305,-88.989,4.272,135.925
-0.900,0.436,0.348,-93.018,3.723,144.104
-0.867,0.316,0.400,-96.008,3.906,151.917
-0.832,0.174,0.445,-97.595,4.211,160.156
-0.789,0.039,0.485,-98.877,4.944,166.992
-0.734,-0.104,0.521,-98.450,5.432,172.729
-0.676,-0.261,0.560,-94.421,5.005,178.162
-0.613,-0.409,0.586,-83.740,4.456,182.617
-0.559,-0.534,0.597,-66.589,3.906,185.242
-0.517,-0.627,0.584,-46.265,2.136,186.218
-0.489,-0.718,0.559,-30.518,-1.038,182.617
-0.468,-0.816,0.519,-28.992,-7.324,173.889
-0.445,-0.883,0.488,-41.199,-17.822,160.767
-0.437,-0.958,0.435,-57.983,-29.724,145.020
-0.424,-1.009,0.369,-74.158,-40.344,128.113
-0.427,-1.049,0.290,-83.862,-49.377,113.220
-0.439,-1.062,0.196,-85.327,-55.237,101.013
-0.445,-1.057,0.096,-81.238,-55.664,90.820
-0.457,-1.053,0.023,-73.730,-51.086,83.374
-0.470,-1.052,-0.026,-63.232,-42.725,78.125
-0.473,-1.059,-0.054,-49.927,-32.166,73.730
-0.476,-1.082,-0.057,-36.438,-21.729,69.336
-0.488,-1.110,-0.040,-26.428,-13.000,63.416
-0.506,-1.133,-0.023,-21.545,-7.935,54.504
-0.519,-1.146,-0.035,-21.118,-6.104,43.396
-0.571,-1.105,0.054,-24.353,-6.226,29.785
-0.521,-0.996,-0.063,-28.625,-7.690,26.672
-0.622,-1.128,0.052,-9.216,-11.780,7.996
-0.619,-1.014,-0.062,0.000,-8.789,-0.244
-0.677,-0.930,-0.070,4.944,-2.930,-3.418
-0.719,-0.869,-0.087,9.094,0.610,-10.010
-0.760,-0.772,-0.100,7.263,7.019,-12.085
-0.808,-0.735,-0.043,3.235,11.353,-13.367
-0.824,-0.705,-0.011,-3.662,13.367,-13.977
-0.861,-0.681,0.033,-7.812,15.015,-14.038
-0.865,-0.673,0.079,-5.798,12.085,-13.428
-0.888,-0.638,0.073,-2.197,11.719,-12.878
-0.905,-0.606,0.083,2.869,11.292,-12.878
-0.918,-0.564,0.083,7.080,10.620,-13.000
-0.941,-0.513,0.089,8.728,9.827,-12.939
-0.948,-0.482,0.106,8.118,8.057,-12.573
-0.955,-0.465,0.111,6.165,6.531,-11.536
-0.966,-0.461,0.111,4.761,4.944,-10.315
-0.971,-0.458,0.095,5.310,3.296,-9.094
-0.971,-0.452,0.074,7.141,2.136,-7.996
-0.971,-0.443,0.053,8.118,2.197,-6.836
-0.964,-0.442,0.033,8.118,2.869,-5.615
-0.955,-0.447,0.028,8.057,3.784,-4.089
-0.943,-0.460,0.036,9.155,4.456,-3.357
-0.932,-0.476,0.045,10.986,5.493,-3.235
-0.924,-0.479,0.054,12.268,6.226,-3.540
-0.919,-0.463,0.077,12.268,5.676,-4.395
-0.910,-0.448,0.076,10.864,5.005,-6.042
-0.914,-0.438,0.083,8.850,5.066,-8.118
-0.915,-0.428,0.089,8.728,4.395,-10.010
-0.922,-0.416,0.094,10.010,3.967,-11.841
-0.920,-0.407,0.097,11.230,4.089,-12.817
-0.922,-0.396,0.097,12.146,3.723,-13.062
-0.924,-0.386,0.093,12.817,3.357,-12.451
-0.925,-0.383,0.088,12.878,3.052,-11.353
-0.929,-0.383,0.081,11.597,2.502,-10.559
-0.935,-0.372,0.079,9.399,2.502,-9.827
-0.941,-0.356,0.081,6.775,2.319,-9.094
-0.944,-0.344,0.083,3.113,1.953,-8.362
-0.947,-0.337,0.087,-1.526,0.977,-7.263
-0.946,-0.336,0.085,-4.578,-0.427,-5.554
-0.940,-0.342,0.075,-4.883,-1.343,-3.723
-0.936,-0.352,0.061,-3.845,-1.831,-2.136
-0.930,-0.361,0.045,-3.113,-2.197,-0.305
-0.926,-0.380,0.033,-2.563,-2.014,1.343
-0.923,-0.402,0.024,-2.014,-1.770,2.502
-0.915,-0.420,0.021,-0.977,-1.099,3.174
-0.913,-0.441,0.015,0.122,-0.061,3.052
-0.913,-0.443,0.021,0.000,0.916,2.502
-0.906,-0.456,0.037,-1.038,0.916,2.625
-0.904,-0.470,0.052,0.061,1.221,1.038
-0.901,-0.477,0.059,2.136,1.953,0.427
-0.908,-0.482,0.056,4.028,2.258,-0.549
-0.910,-0.480,0.057,4.395,2.380,-1.709
-0.907,-0.482,0.054,3.967,1.892,-2.930
-0.908,-0.476,0.048,3.540,1.770,-3.723
-0.909,-0.464,0.041,3.113,1.709,-4.700
-0.911,-0.449,0.032,2.563,1.648,-5.615
-0.914,-0.433,0.026,1.648,2.136,-6.165
-0.915,-0.420,0.026,0.977,2.808,-6.348
-0.922,-0.405,0.032,1.099,3.296,-6.104
-0.922,-0.392,0.039,2.197,3.601,-5.859
-0.920,-0.387,0.051,3.174,3.662,-5.432
-0.916,-0.389,0.062,3.418,3.418,-5.066
-0.917,-0.387,0.069,2.869,2.563,-5.066
-0.914,-0.388,0.067,1.709,1.282,-5.127
-0.916,-0.395,0.063,0.305,0.000,-4.639
-0.921,-0.403,0.060,-0.427,-1.404,-4.272
-0.924,-0.404,0.050,0.183,-1.892,-3.662
-0.929,-0.403,0.042,0.854,-1.892,-3.174
-0.933,-0.400,0.041,0.488,-1.709,-2.747
-0.936,-0.401,0.043,0.305,-1.099,-2.258

-0.894,-2.023,0.187,13.062,-33.936,189.880
-0.951,-2.232,0.136,28.137,-41.321,169.312
-1.017,-2.389,0.055,28.687,-45.044,143.982
-1.079,-2.486,-0.044,18.555,-45.044,115.356
-1.127,-2.525,-0.143,4.211,-40.955,84.839
-1.176,-2.526,-0.223,-6.714,-31.067,54.382
-1.201,-2.498,-0.258,-10.376,-16.235,24.170
-1.196,-2.444,-0.246,-5.554,0.549,-5.005
-1.153,-2.353,-0.185,5.249,18.005,-33.936
-1.086,-2.223,-0.089,16.907,34.058,-62.317
-1.011,-2.099,-0.003,25.879,47.302,-86.853
-0.953,-1.965,0.081,29.480,57.678,-107.666
-0.901,-1.820,0.159,29.907,65.002,-125.977
-0.848,-1.674,0.240,31.067,68.848,-142.212
-0.791,-1.509,0.335,33.020,68.970,-157.898
-0.725,-1.323,0.444,35.645,65.369,-173.279
-0.641,-1.106,0.569,39.124,58.594,-188.904
-0.560,-0.884,0.696,42.419,51.270,-203.735
-0.479,-0.654,0.806,43.701,44.556,-216.125
-0.415,-0.444,0.900,43.579,38.574,-224.976
-0.362,-0.252,0.947,43.823,31.921,-229.370
-0.317,-0.062,0.951,45.105,23.437,-231.201
-0.283,0.122,0.913,46.875,14.160,-232.971
-0.246,0.316,0.850,45.410,5.066,-234.924
-0.230,0.498,0.770,39.734,-2.808,-235.046
-0.221,0.643,0.668,33.325,-9.216,-231.812
-0.203,0.776,0.576,28.809,-12.268,-226.562
-0.204,0.895,0.522,27.344,-11.841,-220.032
-0.214,0.979,0.482,29.236,-10.437,-210.693
-0.205,1.033,0.459,33.630,-8.667,-199.158
-0.197,1.095,0.437,39.551,-7.080,-187.134
-0.198,1.149,0.432,45.959,-5.981,-175.415
-0.209,1.188,0.433,47.546,-4.700,-163.574
-0.225,1.226,0.410,44.189,-4.517,-150.879
-0.248,1.260,0.375,39.368,-6.042,-138.062
-0.285,1.281,0.335,35.400,-8.179,-125.488
-0.317,1.293,0.297,32.288,-10.376,-112.122
-0.352,1.314,0.262,31.128,-12.024,-98.816
-0.389,1.329,0.232,31.982,-13.000,-86.121
-0.444,1.332,0.211,33.264,-12.939,-72.937
-0.504,1.302,0.205,33.508,-11.658,-58.594
-0.556,1.244,0.211,33.142,-8.789,-31.921
-0.621,1.115,0.266,36.133,-3.784,-22.156
-0.641,1.058,0.296,35.889,-2.136,-14.832
-0.656,1.004,0.316,32.471,-1.526,-8.911
-0.680,0.955,0.330,26.917,-0.610,-4.333
-0.705,0.898,0.335,21.240,0.854,-1.160
-0.740,0.851,0.346,16.846,2.747,1.709
-0.759,0.808,0.354,13.794,3.906,4.089
-0.775,0.774,0.365,11.169,5.188,6.042
-0.780,0.742,0.369,7.568,5.798,7.874
-0.787,0.720,0.371,2.625,6.470,9.460
-0.795,0.697,0.373,-2.869,7.629,11.353
-0.803,0.671,0.385,-7.874,8.240,13.367
-0.807,0.643,0.396,-11.047,8.118,15.198
-0.811,0.613,0.410,-11.414,7.263,16.479
-0.817,0.582,0.416,-10.803,5.432,17.883
-0.826,0.553,0.421,-10.376,3.601,19.592
-0.832,0.518,0.422,-9.949,1.892,20.935
-0.839,0.487,0.423,-8.667,0.244,21.240
-0.844,0.456,0.412,-6.897,-0.977,20.508
-0.850,0.434,0.404,-5.859,-1.404,19.470
-0.853,0.415,0.393,-5.737,-1.587,18.494
-0.858,0.396,0.386,-6.348,-1.587,17.761
-0.859,0.380,0.381,-7.446,-1.404,17.151
-0.860,0.368,0.376,-9.155,-1.221,16.541
-0.858,0.362,0.370,-10.986,-0.671,15.442
-0.852,0.358,0.366,-13.000,-0.122,14.160
-0.851,0.362,0.365,-15.198,0.732,13.123
-0.849,0.364,0.364,-17.151,1.099,12.329
-0.843,0.369,0.361,-18.433,1.465,11.963
-0.836,0.373,0.357,-18.799,1.526,11.475
-0.839,0.376,0.357,-19.165,1.282,11.353
-0.838,0.375,0.352,-19.531,1.160,11.597
-0.833,0.371,0.347,-18.799,0.732,11.902
-0.831,0.370,0.342,-16.724,-0.122,12.146
-0.833,0.365,0.337,-14.587,-0.793,12.268
-0.833,0.363,0.332,-13.184,-1.160,12.268
-0.831,0.364,0.326,-13.123,-1.465,11.902
-0.833,0.368,0.323,-13.062,-1.465,11.047
-0.839,0.369,0.322,-13.000,-1.404,10.376
-0.844,0.365,0.319,-12.512,-1.465,9.888
-0.846,0.363,0.317,-10.132,-1.587,9.338
-0.850,0.365,0.319,-6.592,-1.648,8.545
-0.851,0.361,0.323,-3.113,-1.770,7.935
-0.854,0.357,0.326,-0.427,-1.831,7.385
-0.851,0.352,0.331,0.916,-1.709,6.653
-0.849,0.350,0.336,1.404,-1.587,5.676
-0.846,0.355,0.335,1.160,-1.648,4.211
-0.846,0.362,0.328,0.671,-1.892,2.625
-0.846,0.367,0.317,-0.427,-2.197,1.587
-0.849,0.371,0.304,-0.549,-2.197,0.977
-0.850,0.374,0.299,0.671,-1.953,0.549
-0.849,0.374,0.297,1.770,-1.587,0.122
-0.848,0.375,0.297,2.258,-1.221,-0.366
-0.848,0.375,0.299,1.709,-0.671,-0.610
-0.844,0.381,0.304,0.793,0.061,-1.038
-0.841,0.389,0.310,0.916,0.793,-1.526
-0.838,0.400,0.312,1.648,1.099,-1.892
-0.835,0.404,0.310,1.526,1.221,-1.953
-0.835,0.410,0.315,0.854,1.648,-1.892
-0.832,0.405,0.319,0.793,2.014,-1.587
-0.831,0.412,0.328,1.770,2.136,-1.892
-0.828,0.423,0.336,3.906,1.709,-2.075
-0.825,0.426,0.343,5.554,1.099,-1.831
-0.824,0.426,0.344,5.615,0.610,-1.526
-0.823,0.425,0.340,4.761,0.549,-1.465
-0.827,0.429,0.337,3.540,0.732,-1.587
-0.830,0.430,0.331,1.770,1.160,-1.709
-0.833,0.433,0.330,0.916,1.465,-1.709
-0.832,0.433,0.331,1.038,1.709,-1.648
-0.828,0.432,0.332,1.709,1.465,-1.465
-0.828,0.432,0.331,2.075,1.343,-0.916
-0.836,0.427,0.326,-0.977,2.319,-0.488
-0.842,0.421,0.328,-1.892,2.808,-0.122
-0.848,0.418,0.327,-0.793,2.441,0.122
-0.852,0.418,0.325,1.282,1.404,0.244
-0.854,0.416,0.320,2.747,0.488,0.488
-0.855,0.412,0.315,2.930,0.549,0.916
-0.863,1.703,0.230,47.363,-18.005,-166.809
-0.945,1.897,0.152,49.622,-26.428,-144.958
-1.011,2.065,0.045,51.758,-34.546,-122.681
-1.061,2.238,-0.068,47.791,-40.344,-100.769
-1.128,2.363,-0.152,36.438,-42.847,-77.942
-1.152,2.447,-0.231,22.278,-42.786,-53.467
-1.158,2.442,-0.281,8.850,-40.222,-26.733
-1.140,2.373,-0.316,0.000,-35.400,1.587
-1.108,2.258,-0.341,-3.723,-28.931,30.029
-1.071,2.105,-0.355,-6.470,-20.569,56.152
-1.039,1.946,-0.365,-12.512,-11.230,78.308
-1.016,1.786,-0.357,-24.902,-2.136,95.093
-0.992,1.637,-0.322,-42.236,6.042,106.628
-0.960,1.516,-0.286,-61.401,13.489,113.708
-0.937,1.406,-0.243,-78.430,20.447,118.958
-0.918,1.293,-0.187,-90.759,26.672,124.512
-0.897,1.152,-0.129,-97.412,32.471,131.836
-0.875,0.984,-0.051,-97.534,36.926,140.808
-0.860,0.786,0.041,-92.529,40.283,150.879
-0.843,0.585,0.154,-86.609,41.504,160.583
-0.840,0.405,0.265,-82.581,39.429,168.518
-0.818,0.263,0.364,-82.703,34.119,172.424
-0.788,0.133,0.445,-89.050,27.649,173.340
-0.759,0.002,0.518,-98.999,21.912,172.852
-0.713,-0.096,0.578,-108.093,16.235,171.692
-0.648,-0.185,0.599,-112.427,12.878,171.204
-0.584,-0.256,0.593,-106.873,9.033,171.875
-0.589,-0.501,0.859,-89.478,2.319,172.180
-0.511,-0.536,0.745,-79.651,7.385,176.819
-0.476,-0.625,0.732,-63.965,8.179,179.199
-0.478,-0.750,0.758,-50.232,0.732,177.307
-0.464,-0.803,0.668,-48.401,-7.568,170.959
-0.457,-0.847,0.594,-54.565,-18.738,158.447
-0.450,-0.883,0.511,-67.627,-30.884,142.944
-0.449,-0.918,0.411,-81.543,-41.321,127.808
-0.431,-0.951,0.299,-89.539,-48.889,114.868
-0.424,-0.989,0.190,-89.111,-51.819,104.980
-0.423,-1.014,0.089,-80.566,-49.255,98.389
-0.418,-1.028,0.015,-67.078,-41.565,94.421
-0.426,-1.059,-0.027,-50.415,-29.541,92.407
-0.437,-1.083,-0.039,-33.142,-15.991,90.271
-0.457,-1.096,-0.021,-16.907,-3.174,86.975
-0.480,-1.122,0.005,-6.897,7.324,80.933
-0.530,-1.191,0.089,-8.118,13.062,70.801
-0.446,-1.144,0.032,-11.963,15.442,59.753
-0.541,-1.292,0.059,2.258,10.010,38.208
-0.559,-1.283,0.273,12.085,-9.583,24.902
-0.579,-1.254,0.192,5.737,-11.841,18.982
-0.609,-1.251,0.110,4.272,-7.690,7.568
-0.661,-1.230,0.114,14.099,-9.827,-2.258
-0.705,-1.126,0.115,20.325,-8.545,-11.658
-0.756,-1.005,0.123,15.320,-1.648,-19.348
-0.804,-0.907,0.111,5.005,1.831,-26.428
-0.853,-0.828,0.129,-5.554,1.953,-30.273
-0.879,-0.768,0.142,-6.897,0.061,-31.128
-0.905,-0.708,0.134,-0.549,0.000,-30.029
-0.936,-0.645,0.128,9.766,0.244,-28.442
-0.946,-0.583,0.097,19.592,-1.160,-26.245
-0.953,-0.540,0.063,25.330,-0.793,-24.841
-0.963,-0.508,0.028,26.184,1.526,-24.170
-0.966,-0.478,0.050,25.757,1.099,-23.926
-0.978,-0.455,0.042,23.193,1.404,-23.987
-0.973,-0.439,0.056,18.616,0.793,-24.109
-0.962,-0.428,0.039,13.672,0.732,-22.949
-0.954,-0.436,0.037,11.108,0.916,-21.240
-0.947,-0.438,0.027,11.108,0.916,-19.287
-0.943,-0.429,0.013,11.230,1.831,-17.334
-0.934,-0.430,0.004,10.010,3.113,-15.930
-0.929,-0.431,0.019,7.263,4.395,-15.015
-0.924,-0.430,0.044,5.554,5.493,-14.648
-0.927,-0.427,0.066,6.348,5.676,-15.625
-0.925,-0.410,0.081,7.019,5.127,-17.700
-0.929,-0.385,0.095,6.409,4.150,-19.226
-0.935,-0.354,0.109,6.042,3.052,-20.691
-0.931,-0.327,0.120,6.042,1.099,-20.935
-0.940,-0.310,0.133,5.798,0.000,-19.775
-0.939,-0.307,0.133,6.653,-1.343,-17.761
-0.944,-0.304,0.121,8.667,-1.587,-15.808
-0.946,-0.309,0.106,10.620,-0.977,-13.794
-0.947,-0.314,0.096,10.742,-0.793,-12.329
-0.945,-0.316,0.087,9.827,-0.610,-11.292
-0.945,-0.316,0.082,8.911,-0.427,-10.803
-0.943,-0.317,0.075,7.996,-0.610,-10.010
-0.941,-0.319,0.068,7.385,-0.793,-8.789
-0.936,-0.322,0.058,7.385,-0.793,-6.958
-0.932,-0.328,0.050,7.202,-0.610,-5.005
-0.936,-0.342,0.040,5.188,-0.488,-3.357
-0.940,-0.353,0.041,0.854,-0.732,-2.869
-0.938,-0.356,0.047,-3.723,-1.343,-3.052
-0.941,-0.353,0.050,-6.775,-1.770,-3.235
-0.946,-0.350,0.049,-7.629,-2.075,-3.174
-0.946,-0.348,0.046,-7.080,-2.258,-2.747
-0.944,-0.354,0.042,-5.737,-1.953,-1.770
-0.943,-0.368,0.041,-4.333,-1.587,-0.549
-0.941,-0.382,0.046,-2.869,-1.404,0.427
-0.936,-0.398,0.051,-1.404,-1.038,0.793
-0.931,-0.411,0.056,-0.732,-1.099,0.732
-0.927,-0.419,0.062,-0.854,-1.831,0.061
-0.926,-0.432,0.052,-0.061,-2.502,-0.854
-0.925,-0.402,0.049,0.000,-2.991,-1.648
-0.918,-0.402,0.048,0.854,-3.906,-1.465
-0.915,-0.407,0.039,2.625,-3.357,-1.587
-0.915,-0.417,0.035,4.211,-2.197,-0.854
-0.916,-0.429,0.026,6.348,-0.732,-0.488
-0.915,-0.430,0.028,7.385,0.671,-0.366
-0.915,-0.432,0.034,6.958,1.648,-0.427
-0.913,-0.436,0.038,4.578,1.709,-1.221
-0.909,-0.437,0.041,1.526,0.854,-2.197
-0.906,-0.435,0.038,-0.366,0.183,-2.686
-0.907,-0.422,0.029,0.000,0.244,-2.869
-0.910,-0.396,0.027,1.465,1.099,-3.113
-0.913,-0.384,0.032,1.282,1.587,-3.174
-0.917,-0.382,0.038,-0.732,1.221,-3.235
-0.920,-0.387,0.039,-1.526,0.488,-3.174
-0.925,-0.389,0.034,-0.183,0.366,-2.808
-0.929,-0.387,0.027,2.136,0.977,-2.075
-0.931,-0.382,0.024,3.784,1.953,-1.404
-0.929,-0.376,0.030,4.517,3.296,-0.671
-0.924,-0.363,0.043,4.272,4.333,-0.122

-0.732,-1.865,0.393,-42.725,-33.447,239.136
-0.832,-2.248,0.358,-4.578,-46.021,235.107
-0.923,-2.575,0.290,34.058,-62.439,219.055
-1.005,-2.835,0.190,57.983,-77.209,190.918
-1.090,-3.003,0.036,56.519,-85.815,154.175
-1.167,-3.086,-0.137,32.959,-85.388,113.037
-1.228,-3.077,-0.302,1.587,-75.500,70.190
-1.263,-2.996,-0.427,-20.508,-57.922,27.832
-1.260,-2.866,-0.493,-24.963,-36.072,-11.475
-1.210,-2.696,-0.490,-13.733,-12.634,-47.668
-1.113,-2.516,-0.433,6.531,29.480,-107.178
-0.903,-2.162,-0.246,44.678,46.448,-130.249
-0.797,-1.984,-0.158,53.406,60.364,-150.635
-0.691,-1.784,-0.084,54.138,71.594,-169.250
-0.586,-1.568,-0.017,48.035,80.505,-186.707
-0.502,-1.348,0.076,36.499,86.731,-201.660
-0.420,-1.131,0.191,23.132,89.966,-213.623
-0.334,-0.903,0.334,12.085,88.806,-224.854
-0.250,-0.648,0.499,7.324,84.167,-237.488
-0.172,-0.370,0.659,10.071,78.064,-250.549
-0.111,-0.085,0.777,16.418,69.702,-259.949
-0.047,0.209,0.837,22.278,58.533,-264.221
-0.009,0.489,0.863,26.306,46.021,-264.282
-0.003,0.721,0.843,27.893,33.813,-259.399
0.002,0.919,0.802,25.696,24.536,-250.488
-0.013,1.068,0.762,23.865,18.860,-239.929
-0.040,1.166,0.715,22.827,15.747,-227.661
-0.064,1.232,0.688,19.348,14.465,-214.905
-0.080,1.286,0.679,15.686,14.404,-201.782
-0.091,1.346,0.665,15.747,13.184,-188.782
-0.090,1.431,0.648,21.301,8.911,-176.392
-0.110,1.524,0.628,29.846,2.747,-163.635
-0.157,1.576,0.585,34.485,-2.930,-148.376
-0.196,1.592,0.513,32.227,-7.996,-130.249
-0.254,1.581,0.438,27.283,-11.963,-111.816
-0.332,1.534,0.359,22.644,-15.015,-93.445
-0.411,1.464,0.278,19.653,-16.846,-75.989
-0.487,1.383,0.217,18.250,-16.602,-60.364
-0.554,1.303,0.183,18.311,-14.160,-47.119
-0.616,1.237,0.162,20.020,-11.169,-35.828
-0.664,1.177,0.161,23.804,-7.996,-26.062
-0.706,1.110,0.182,26.245,-4.822,-17.029
-0.743,1.026,0.212,25.818,-1.953,-1.587
-0.802,0.854,0.287,22.583,1.221,3.540
-0.817,0.787,0.321,20.264,2.319,6.653
-0.832,0.737,0.358,15.442,3.845,8.545
-0.841,0.691,0.377,8.911,5.066,10.193
-0.848,0.658,0.384,3.052,6.287,11.292
-0.851,0.633,0.387,0.122,6.470,11.719
-0.848,0.612,0.388,-1.038,6.165,11.536
-0.849,0.594,0.391,-2.319,6.042,11.963
-0.848,0.566,0.394,-3.906,6.104,13.306
-0.852,0.530,0.405,-5.859,5.920,14.832
-0.850,0.496,0.423,-6.470,4.822,16.235
-0.848,0.471,0.436,-6.226,2.869,17.029
-0.840,0.443,0.442,-5.310,0.488,16.968
-0.834,0.431,0.440,-5.615,-0.977,16.296
-0.834,0.422,0.434,-7.385,-1.648,15.503
-0.832,0.415,0.428,-10.376,-1.831,15.015
-0.828,0.401,0.421,-12.451,-1.709,14.771
-0.824,0.389,0.415,-12.390,-1.404,13.794
-0.820,0.383,0.406,-10.925,-1.282,12.634
-0.818,0.386,0.394,-9.033,-1.282,11.475
-0.817,0.394,0.382,-8.423,-1.343,10.742
-0.817,0.396,0.378,-8.850,-1.343,10.925
-0.813,0.391,0.384,-9.399,-0.854,11.597
-0.809,0.379,0.396,-9.277,-0.732,12.146
-0.809,0.364,0.409,-7.996,-0.977,12.817
-0.812,0.351,0.419,-6.531,-1.526,13.611
-0.819,0.333,0.411,-8.057,-3.357,13.367
-0.825,0.329,0.390,-10.681,-4.028,12.695
-0.833,0.336,0.367,-13.245,-4.395,11.597
-0.840,0.344,0.344,-14.832,-4.150,10.376
-0.841,0.355,0.328,-15.259,-3.601,9.521
-0.843,0.364,0.319,-15.076,-3.174,8.911
-0.848,0.369,0.318,-14.771,-2.380,8.667
-0.848,0.368,0.325,-14.832,-1.526,8.301
-0.846,0.370,0.336,-14.465,-1.282,7.751
-0.844,0.378,0.341,-13.367,-1.587,6.775
-0.842,0.386,0.339,-12.939,-2.563,6.042
-0.841,0.395,0.337,-12.878,-3.540,5.554
-0.841,0.398,0.335,-12.268,-3.845,5.310
-0.840,0.399,0.332,-10.010,-4.150,5.310
-0.838,0.398,0.328,-6.348,-4.700,5.127
-0.836,0.397,0.323,-2.625,-5.127,4.761
-0.839,0.397,0.314,-0.244,-5.188,4.395
-0.842,0.391,0.301,0.000,-4.700,4.395
-0.843,0.385,0.294,-0.305,-3.601,4.456
-0.843,0.380,0.288,0.061,-2.808,4.150
-0.848,0.378,0.289,0.916,-1.953,3.418
-0.850,0.370,0.295,1.282,-1.282,2.808
-0.850,0.365,0.304,1.282,-0.366,2.380
-0.849,0.358,0.318,1.221,0.366,1.831
-0.848,0.351,0.328,1.404,0.427,1.099
-0.844,0.353,0.333,2.136,-0.122,0.000
-0.841,0.364,0.331,3.174,-1.160,-1.099
-0.840,0.380,0.324,3.601,-1.892,-1.892
-0.839,0.394,0.314,3.357,-2.136,-2.380
-0.836,0.404,0.311,2.197,-1.831,-2.441
-0.834,0.408,0.311,1.648,-1.038,-2.319
-0.832,0.410,0.318,1.587,0.305,-2.258
-0.828,0.405,0.327,2.136,1.160,-1.526
-0.826,0.392,0.338,2.258,1.465,-1.099
-0.830,0.386,0.337,2.136,1.160,-0.977
-0.832,0.386,0.331,2.502,0.854,-1.282
-0.832,0.388,0.330,3.357,0.549,-1.526
-0.833,0.392,0.329,4.211,0.061,-1.587
-0.833,0.391,0.326,5.798,-0.671,-1.526
-0.838,0.388,0.328,6.897,-1.038,-1.404
-0.842,0.383,0.328,6.714,-0.916,-1.221
-0.847,0.378,0.328,5.920,-0.366,-1.404
-0.848,0.380,0.331,4.944,0.610,-1.648
-0.850,0.383,0.332,3.662,1.587,-2.136
-0.847,0.389,0.330,2.319,2.502,-2.502
-0.844,0.399,0.330,1.526,2.869,-2.869
-0.841,0.408,0.328,1.099,3.174,-2.930
-0.839,0.417,0.327,1.404,3.174,-2.991
-0.834,0.422,0.326,1.831,2.991,-2.930
-0.831,0.427,0.327,1.892,2.869,-2.869
-0.398,-2.007,0.181,53.589,24.658,-16.052
-0.387,-2.009,0.194,48.767,24.353,-46.692
-0.377,-1.922,0.224,38.147,21.179,-80.750
-0.373,-1.753,0.238,29.785,16.724,-112.671
-0.375,-1.578,0.250,26.611,13.367,-138.245
-0.379,-1.408,0.270,28.687,10.803,-157.776
-0.381,-1.249,0.290,37.781,9.827,-171.326
-0.396,-1.101,0.325,52.856,11.292,-180.542
-0.400,-0.964,0.364,69.824,15.381,-187.561
-0.415,-0.797,0.437,85.999,20.325,-193.481
-0.403,-0.643,0.473,98.206,25.391,-199.158
-0.434,-0.480,0.544,103.882,28.748,-205.505
-0.484,-0.255,0.589,104.431,29.846,-214.600
-0.500,-0.016,0.588,101.685,30.396,-225.220
-0.501,0.207,0.589,90.942,27.832,-232.788
-0.512,0.386,0.596,79.041,23.071,-233.765
-0.496,0.514,0.589,75.562,17.944,-228.333
-0.486,0.596,0.607,79.529,13.489,-217.896
-0.537,0.713,0.604,91.064,10.925,-206.360
-0.589,0.907,0.528,104.736,9.399,-200.378
-0.647,1.195,0.461,104.919,5.493,-201.111
-0.741,1.548,0.378,90.027,-1.526,-205.078
-0.807,1.960,0.289,66.895,-11.780,-206.360
-0.823,2.300,0.180,42.114,-25.330,-199.280
-0.838,2.564,0.063,24.475,-39.124,-178.284
-0.872,2.706,-0.086,22.949,-49.500,-142.700
-0.889,2.776,-0.194,35.706,-54.016,-101.318
-0.922,2.729,-0.333,45.105,-53.345,-57.983
-0.949,2.687,-0.435,48.889,-49.438,-20.020
-0.973,2.606,-0.502,43.335,-42.664,7.263
-0.953,2.553,-0.532,25.635,-34.119,28.992
-0.944,2.468,-0.472,3.052,-23.499,47.668
-0.896,2.369,-0.352,-18.311,-11.780,67.322
-0.860,2.246,-0.277,-35.522,0.549,89.294
-0.828,2.094,-0.219,-49.500,12.085,109.497
-0.806,1.925,-0.143,-61.035,21.179,127.380
-0.785,1.745,-0.070,-70.374,27.344,142.273
-0.764,1.564,-0.007,-80.627,32.532,153.320
-0.751,1.371,0.051,-90.637,38.635,163.513
-0.735,1.159,0.105,-97.107,44.434,173.340
-0.717,0.923,0.188,-97.595,50.110,183.167
-0.706,0.679,0.306,-93.201,52.917,192.871
-0.689,0.446,0.440,-84.290,50.842,201.416
-0.663,0.250,0.580,-72.815,43.274,208.923
-0.615,0.096,0.702,-64.392,31.921,215.942
-0.564,-0.069,0.774,-62.134,19.653,220.459
-0.540,-0.294,0.837,-61.157,3.479,221.619
-0.501,-0.567,0.919,-64.575,-12.817,219.971
-0.482,-0.803,0.893,-77.209,-18.677,217.529
-0.449,-0.969,0.783,-85.938,-24.719,210.754
-0.469,-1.156,0.741,-90.759,-34.729,198.303
-0.457,-1.249,0.634,-95.886,-43.945,180.908
-0.454,-1.291,0.545,-97.351,-49.133,160.828
-0.454,-1.267,0.466,-94.421,-52.063,140.808
-0.454,-1.215,0.398,-88.440,-53.345,123.718
-0.471,-1.155,0.331,-82.275,-54.077,110.413
-0.488,-1.099,0.256,-77.026,-54.932,99.548
-0.509,-1.066,0.185,-73.425,-54.565,90.698
-0.527,-1.045,0.110,-71.106,-52.063,82.947
-0.537,-1.029,0.044,-68.726,-47.302,75.928
-0.550,-1.034,-0.002,-65.063,-39.734,69.580
-0.580,-1.036,-0.026,-60.242,-31.006,63.843
-0.600,-1.021,-0.042,-53.040,-21.729,58.594
-0.617,-1.004,-0.048,-44.495,-13.672,53.589
-0.638,-0.989,-0.039,-35.767,-7.324,48.645
-0.655,-0.962,-0.031,-26.489,-2.991,43.091
-0.672,-0.939,-0.024,-18.738,-0.610,37.170
-0.691,-0.938,-0.015,-14.832,-0.305,30.640
-0.742,-0.997,-0.006,-12.451,-1.831,23.376
-0.696,-0.837,-0.003,-9.766,-3.540,19.775
-0.726,-0.951,-0.017,7.019,-3.479,11.169
-0.731,-0.946,-0.035,20.020,-2.625,3.723
-0.745,-0.881,-0.038,22.217,0.427,1.526
-0.787,-0.838,-0.045,16.541,6.104,-2.136
-0.825,-0.774,-0.022,8.057,11.230,-5.310
-0.854,-0.692,0.025,0.000,14.465,-8.118
-0.872,-0.603,0.069,-5.737,17.334,-9.827
-0.893,-0.533,0.114,-7.568,19.165,-9.399
-0.912,-0.508,0.148,-5.676,19.226,-7.568
-0.925,-0.501,0.162,-2.014,18.372,-5.066
-0.932,-0.511,0.176,3.052,15.198,-3.113
-0.939,-0.517,0.163,6.287,10.986,-2.136
-0.942,-0.516,0.147,7.202,6.042,-2.075
-0.936,-0.509,0.121,6.348,1.770,-2.930
-0.930,-0.501,0.104,4.822,-0.977,-3.845
-0.926,-0.483,0.080,3.540,-1.953,-4.456
-0.927,-0.461,0.080,4.395,-1.831,-4.517
-0.927,-0.439,0.068,5.310,-0.671,-4.333
-0.936,-0.423,0.065,5.310,0.977,-4.211
-0.928,-0.426,0.087,5.066,0.549,-4.578
-0.926,-0.409,0.074,3.235,1.770,-4.761
-0.928,-0.407,0.067,3.357,2.869,-5.188
-0.921,-0.411,0.065,4.395,2.869,-5.554
-0.914,-0.417,0.065,5.615,2.991,-5.493
-0.911,-0.429,0.063,8.362,3.235,-5.310
-0.912,-0.430,0.064,11.902,3.906,-5.188
-0.915,-0.424,0.074,14.587,4.944,-5.310
-0.915,-0.430,0.089,14.648,5.188,-5.798
-0.919,-0.432,0.104,12.512,3.906,-6.592
-0.925,-0.429,0.113,11.230,2.319,-7.324
-0.929,-0.419,0.112,11.108,1.038,-8.301
-0.932,-0.395,0.117,10.925,0.183,-8.850
-0.939,-0.380,0.123,10.132,-1.160,-9.033
-0.943,-0.371,0.118,8.911,-3.174,-8.667
-0.946,-0.369,0.110,8.728,-5.615,-7.935
-0.945,-0.361,0.084,8.667,-6.836,-7.019
-0.941,-0.351,0.053,8.423,-6.714,-5.737
-0.943,-0.349,0.039,7.751,-6.409,-4.028
-0.938,-0.359,0.025,5.249,-5.493,-2.625
-0.940,-0.384,0.024,2.197,-4.517,-1.465
-0.936,-0.405,0.022,0.671,-3.662,-0.427
-0.934,-0.412,0.021,0.732,-2.258,0.183
-0.927,-0.417,0.024,0.854,-0.854,0.549
-0.927,-0.419,0.031,-0.366,0.061,0.610
-0.923,-0.424,0.042,-2.014,0.671,0.366
-0.922,-0.430,0.051,-3.235,0.488,0.000
-0.922,-0.428,0.057,-3.174,0.183,-0.061
-0.920,-0.430,0.060,-2.625,-0.244,0.000
-0.918,-0.434,0.063,-2.869,-0.732,-0.122

-0.678,-1.621,0.320,-14.587,-64.941,221.680
-0.710,-1.676,0.213,-37.170,-66.833,197.205
-0.762,-1.733,0.094,-68.237,-63.049,175.598
-0.837,-1.850,-0.013,-91.614,-55.603,160.217
-0.922,-2.032,-0.090,-93.872,-46.570,149.597
-1.021,-2.244,-0.127,-73.730,-39.673,137.756
-1.090,-2.436,-0.140,-37.354,-36.133,120.544
-1.137,-2.586,-0.144,-0.916,-35.095,97.290
-1.168,-2.675,-0.156,22.278,-32.593,68.542
-1.183,-2.678,-0.177,27.222,-26.550,35.217
-1.172,-2.592,-0.193,18.311,-16.174,-0.305
-1.142,-2.422,-0.207,4.272,-2.930,-34.912
-1.090,-2.199,-0.210,-6.042,11.536,-67.444
-1.024,-1.960,-0.192,-9.338,26.367,-94.971
-0.969,-1.757,-0.163,-5.554,39.185,-115.479
-0.905,-1.593,-0.114,4.578,48.950,-129.456
-0.849,-1.469,-0.050,20.691,55.237,-138.855
-0.801,-1.360,0.028,39.307,57.434,-147.034
-0.745,-1.248,0.115,54.321,56.580,-156.189
-0.690,-1.129,0.224,60.364,54.321,-167.542
-0.642,-0.988,0.334,57.129,50.903,-180.054
-0.586,-0.804,0.431,49.988,47.424,-194.275
-0.525,-0.589,0.525,43.884,44.983,-209.229
-0.461,-0.358,0.611,39.246,43.945,-221.924
-0.399,-0.130,0.670,34.485,42.297,-230.530
-0.341,0.073,0.706,29.053,39.001,-234.802
-0.300,0.267,0.704,23.865,34.729,-235.474
-0.272,0.424,0.672,19.104,29.602,-234.375
-0.263,0.534,0.624,12.756,24.841,-231.140
-0.250,0.627,0.561,6.470,21.301,-226.135
-0.230,0.714,0.511,4.333,18.372,-220.520
-0.203,0.818,0.458,6.775,14.404,-215.393
-0.182,0.942,0.427,10.498,10.620,-210.693
-0.174,1.073,0.406,10.620,7.629,-204.163
-0.185,1.183,0.382,9.338,5.005,-193.665
-0.196,1.277,0.345,8.667,3.235,-179.810
-0.227,1.338,0.314,11.047,1.648,-164.734
-0.258,1.360,0.280,16.174,0.244,-148.010
-0.287,1.355,0.253,22.156,-0.732,-116.089
-0.372,1.286,0.241,25.513,-1.038,-103.516
-0.401,1.251,0.242,23.987,-0.732,-91.003
-0.427,1.235,0.248,25.879,-1.526,-80.017
-0.455,1.233,0.251,32.410,-4.150,-70.313
-0.479,1.233,0.249,39.612,-7.812,-60.669
-0.507,1.227,0.252,42.969,-9.888,-50.781
-0.542,1.198,0.251,41.077,-9.155,-40.466
-0.577,1.150,0.243,35.217,-6.592,-30.457
-0.611,1.100,0.231,28.870,-3.479,-21.973
-0.648,1.057,0.221,23.804,-1.221,-15.137
-0.677,1.016,0.221,19.775,1.221,-9.888
-0.696,0.984,0.224,15.198,4.272,-5.676
-0.711,0.955,0.223,11.230,7.629,-2.319
-0.729,0.932,0.240,8.423,10.803,0.854
-0.744,0.896,0.262,6.897,12.512,5.371
-0.762,0.850,0.298,7.446,13.794,10.010
-0.780,0.797,0.329,8.606,13.916,14.709
-0.795,0.743,0.365,8.728,12.695,19.226
-0.803,0.686,0.389,8.606,10.193,22.583
-0.814,0.640,0.410,7.874,7.263,24.414
-0.820,0.601,0.412,5.615,4.150,24.780
-0.832,0.578,0.412,1.709,2.563,24.414
-0.841,0.553,0.409,-1.953,1.770,23.865
-0.848,0.531,0.408,-3.662,1.526,23.132
-0.852,0.514,0.406,-2.197,0.977,21.973
-0.851,0.500,0.406,0.244,0.244,20.935
-0.853,0.480,0.405,1.648,-0.488,20.874
-0.848,0.460,0.404,1.953,-1.221,21.423
-0.841,0.438,0.404,1.953,-1.831,21.729
-0.836,0.419,0.401,0.671,-2.563,21.545
-0.831,0.405,0.403,-0.916,-3.235,21.179
-0.834,0.394,0.402,-1.770,-3.967,20.630
-0.838,0.382,0.397,-2.136,-4.761,20.142
-0.837,0.372,0.388,-2.747,-5.676,19.714
-0.835,0.364,0.376,-4.028,-6.470,19.104
-0.834,0.361,0.362,-5.798,-6.897,18.311
-0.832,0.360,0.346,-6.897,-7.080,17.456
-0.831,0.358,0.331,-7.507,-7.141,16.418
-0.828,0.360,0.321,-8.057,-6.775,14.954
-0.828,0.359,0.314,-9.094,-6.348,13.550
-0.826,0.359,0.303,-10.559,-5.920,12.146
-0.827,0.368,0.293,-12.207,-5.432,10.315
-0.822,0.389,0.281,-13.672,-4.883,8.240
-0.818,0.415,0.273,-14.221,-4.456,6.348
-0.813,0.437,0.268,-13.489,-4.395,5.310
-0.808,0.454,0.270,-11.536,-4.333,5.005
-0.807,0.462,0.277,-8.057,-4.639,5.249
-0.805,0.464,0.285,-3.662,-4.761,5.554
-0.806,0.458,0.291,-0.305,-5.249,5.981
-0.810,0.449,0.288,1.526,-5.676,6.348
-0.820,0.435,0.278,1.526,-5.432,6.287
-0.829,0.426,0.262,0.793,-5.249,5.798
-0.836,0.418,0.250,-0.244,-4.578,5.005
-0.841,0.413,0.247,-0.854,-3.662,4.089
-0.844,0.411,0.246,-0.488,-3.052,2.930
-0.843,0.409,0.247,0.671,-2.686,2.014
-0.844,0.408,0.243,1.587,-2.563,1.465
-0.844,0.415,0.240,2.686,-2.380,0.854
-0.847,0.420,0.238,4.150,-2.380,0.366
-0.851,0.424,0.237,4.700,-1.892,0.061
-0.855,0.425,0.239,4.456,-1.160,0.000
-0.857,0.423,0.245,4.089,0.061,-0.061
-0.856,0.418,0.255,3.662,1.038,-0.122
-0.850,0.414,0.269,3.418,1.770,-0.610
-0.842,0.412,0.282,2.808,2.502,-1.282
-0.835,0.420,0.293,1.526,3.357,-2.014
-0.830,0.426,0.302,0.488,3.723,-2.747
-0.823,0.440,0.309,0.122,3.601,-3.113
-0.821,0.456,0.308,1.099,2.991,-3.113
-0.817,0.465,0.309,2.808,1.770,-2.808
-0.813,0.469,0.314,4.822,1.099,-2.502
-0.815,0.473,0.315,5.920,0.916,-2.319
-0.814,0.474,0.314,5.432,1.160,-2.075
-0.816,0.473,0.311,3.906,1.099,-1.587
-0.813,0.473,0.307,2.075,0.916,-1.465
-0.814,0.476,0.304,1.831,0.916,-1.282
-0.819,0.477,0.302,1.892,0.732,-0.977
-0.826,0.477,0.299,1.770,0.427,-0.366
-0.835,0.476,0.293,1.892,0.061,0.000
-0.842,0.479,0.289,2.197,0.000,0.366
-0.786,1.913,0.160,62.866,-55.054,-177.856
-0.867,2.141,0.021,48.950,-64.941,-157.043
-0.937,2.352,-0.124,35.645,-70.496,-133.972
-0.973,2.447,-0.259,26.978,-75.073,-109.497
-0.983,2.538,-0.378,24.109,-77.026,-80.200
-0.948,2.583,-0.456,22.766,-73.364,-48.523
-1.004,2.521,-0.545,22.461,-69.153,-16.907
-1.004,2.450,-0.607,17.334,-61.157,11.719
-0.980,2.335,-0.618,6.592,-50.171,37.292
-0.956,2.175,-0.609,-6.958,-38.330,61.157
-0.909,1.996,-0.570,-21.790,-25.208,81.482
-0.880,1.809,-0.516,-34.546,-11.108,98.083
-0.856,1.635,-0.472,-45.837,2.197,111.511
-0.844,1.473,-0.414,-58.411,14.709,121.216
-0.838,1.342,-0.349,-72.144,25.208,128.113
-0.822,1.219,-0.289,-84.290,33.020,133.301
-0.818,1.097,-0.223,-95.459,39.246,137.634
-0.821,0.955,-0.135,-104.431,43.884,141.846
-0.821,0.802,-0.022,-108.398,45.288,146.667
-0.813,0.652,0.097,-105.774,43.274,152.283
-0.811,0.519,0.221,-100.281,38.452,158.936
-0.781,0.390,0.321,-98.206,32.959,166.626
-0.757,0.248,0.419,-100.342,30.518,173.828
-0.741,0.100,0.509,-101.990,31.128,179.871
-0.714,-0.039,0.593,-101.624,32.104,184.448
-0.672,-0.147,0.590,-100.769,30.640,185.913
-0.662,-0.418,0.730,-101.013,23.865,184.021
-0.628,-0.586,0.719,-106.873,20.386,185.364
-0.595,-0.760,0.701,-104.126,13.733,184.509
-0.560,-0.903,0.651,-95.459,4.883,180.298
-0.548,-1.007,0.602,-85.693,-4.211,172.485
-0.537,-1.091,0.528,-77.209,-11.536,160.889
-0.512,-1.117,0.451,-71.289,-16.357,146.545
-0.514,-1.129,0.387,-70.251,-19.592,129.700
-0.502,-1.127,0.329,-76.660,-21.606,111.145
-0.504,-1.115,0.307,-87.097,-22.949,92.407
-0.515,-1.099,0.285,-95.703,-22.827,75.867
-0.533,-1.070,0.256,-98.755,-21.606,63.110
-0.535,-1.046,0.216,-95.398,-19.836,54.993
-0.536,-1.041,0.174,-87.402,-17.090,51.270
-0.540,-1.055,0.132,-76.172,-12.695,49.988
-0.544,-1.087,0.103,-63.599,-7.019,49.255
-0.553,-1.120,0.095,-52.551,-0.916,47.424
-0.568,-1.145,0.103,-42.908,5.066,43.091
-0.586,-1.163,0.115,-35.767,9.399,36.072
-0.651,-1.219,0.127,-33.203,11.108,25.940
-0.635,-1.010,0.206,-34.058,9.155,17.151
-0.664,-1.129,0.160,-18.005,6.470,3.418
-0.703,-1.125,0.159,-2.197,5.737,-14.038
-0.718,-1.009,0.115,-0.122,4.395,-20.813
-0.741,-0.899,0.063,-5.188,3.906,-25.635
-0.761,-0.812,0.031,-13.977,4.578,-27.527
-0.794,-0.754,0.024,-21.667,5.981,-26.917
-0.818,-0.698,0.029,-23.437,8.972,-23.804
-0.848,-0.678,0.033,-17.151,13.367,-22.461
-0.879,-0.648,0.048,-8.118,17.151,-22.339
-0.901,-0.592,0.068,-2.380,18.616,-21.240
-0.915,-0.541,0.082,-0.244,18.494,-20.813
-0.935,-0.503,0.090,-1.953,17.334,-20.386
-0.953,-0.470,0.113,-3.723,14.771,-19.409
-0.963,-0.452,0.127,-2.686,10.437,-18.616
-0.968,-0.434,0.182,-0.732,4.089,-17.273
-0.957,-0.414,0.188,1.282,-1.831,-15.930
-0.958,-0.397,0.166,3.418,-4.395,-15.198
-0.958,-0.398,0.154,4.395,-7.507,-13.550
-0.959,-0.397,0.144,5.249,-9.521,-11.414
-0.957,-0.410,0.135,7.019,-10.071,-9.827
-0.959,-0.417,0.126,8.728,-9.460,-8.362
-0.956,-0.418,0.122,10.315,-8.911,-8.057
-0.951,-0.412,0.120,10.803,-8.057,-8.362
-0.949,-0.405,0.118,10.315,-7.141,-9.033
-0.946,-0.402,0.120,8.911,-6.165,-10.071
-0.937,-0.397,0.121,7.874,-5.432,-11.047
-0.929,-0.390,0.118,7.568,-4.944,-11.780
-0.927,-0.382,0.115,8.362,-4.639,-12.390
-0.925,-0.367,0.114,10.132,-4.333,-12.817
-0.928,-0.362,0.108,12.207,-3.967,-13.000
-0.928,-0.360,0.106,13.794,-3.662,-12.817
-0.929,-0.356,0.105,15.076,-3.601,-12.329
-0.933,-0.354,0.102,16.541,-3.601,-11.780
-0.935,-0.350,0.094,17.700,-3.357,-11.353
-0.937,-0.347,0.089,18.311,-3.296,-11.047
-0.937,-0.337,0.083,18.005,-3.601,-10.742
-0.939,-0.331,0.082,16.174,-3.784,-10.437
-0.939,-0.328,0.080,14.282,-4.211,-9.644
-0.935,-0.323,0.080,12.207,-4.578,-8.545
-0.934,-0.325,0.077,10.193,-4.883,-6.958
-0.936,-0.334,0.069,8.301,-5.066,-5.127
-0.939,-0.347,0.062,6.653,-5.188,-3.662
-0.937,-0.357,0.058,5.310,-4.944,-2.930
-0.941,-0.358,0.055,4.272,-4.517,-2.563
-0.942,-0.352,0.052,2.930,-4.272,-2.502
-0.942,-0.343,0.052,1.709,-4.150,-2.441
-0.940,-0.338,0.055,0.732,-3.967,-2.319
-0.939,-0.340,0.055,-0.366,-3.906,-1.770
-0.937,-0.349,0.051,-2.075,-4.028,-1.404
-0.933,-0.355,0.045,-2.808,-4.333,-0.732
-0.930,-0.361,0.036,-2.319,-3.967,0.000
-0.927,-0.366,0.032,-2.075,-3.052,0.732
-0.922,-0.372,0.033,-2.258,-2.380,1.404
-0.920,-0.384,0.041,-2.319,-1.587,1.892
-0.916,-0.393,0.051,-1.709,-0.427,2.197
-0.913,-0.405,0.058,-0.977,0.183,2.258
-0.912,-0.420,0.068,-0.977,0.305,2.014
-0.912,-0.430,0.074,-1.465,-0.305,0.793
-0.911,-0.432,0.070,-1.648,-0.977,-0.854
-0.912,-0.422,0.066,-1.770,-1.526,-2.441
-0.909,-0.404,0.059,-1.770,-1.831,-3.601
-0.910,-0.387,0.057,-2.014,-1.892,-4.456
-0.913,-0.370,0.053,-1.770,-1.770,-4.578
-0.916,-0.354,0.045,-0.916,-1.526,-4.272
-0.915,-0.342,0.035,-0.366,-1.099,-3.723
-0.918,-0.341,0.031,-1.282,-0.610,-3.174
-0.916,-0.352,0.031,-2.563,0.061,-2.380
-0.919,-0.370,0.035,-3.601,0.732,-1.465
-0.917,-0.388,0.036,-3.723,1.465,-0.977
-0.914,-0.397,0.040,-3.113,2.197,-0.732
-0.913,-0.401,0.051,-2.502,2.808,-0.793
-0.917,-0.404,0.064,-2.014,3.113,-1.099

-0.833,-1.600,0.303,-10.010,-38.818,176.880
-0.910,-1.714,0.225,-35.400,-38.208,156.494
-1.004,-1.863,0.137,-57.739,-33.875,141.113
-1.106,-2.049,0.069,-63.293,-29.480,128.296
-1.194,-2.253,0.025,-47.791,-26.794,113.953
-1.251,-2.439,0.007,-19.165,-26.428,95.032
-1.290,-2.570,-0.012,8.362,-26.855,69.885
-1.302,-2.645,-0.040,25.208,-25.513,38.757
-1.280,-2.601,-0.090,23.682,-19.470,3.906
-1.243,-2.465,-0.140,8.057,-8.484,-31.372
-1.185,-2.253,-0.164,-9.949,6.348,-65.063
-1.104,-2.026,-0.168,-20.447,23.437,-93.201
-1.027,-1.802,-0.135,-21.545,38.513,-115.356
-0.942,-1.594,-0.092,-14.099,57.678,-142.273
-0.795,-1.249,0.057,11.658,61.707,-149.292
-0.737,-1.119,0.147,23.437,62.195,-153.809
-0.689,-1.005,0.244,32.410,59.692,-158.142
-0.632,-0.873,0.346,38.696,54.871,-163.391
-0.585,-0.729,0.449,45.532,48.889,-169.373
-0.545,-0.590,0.536,51.880,43.335,-174.988
-0.519,-0.457,0.623,56.824,38.696,-179.932
-0.500,-0.334,0.703,60.059,34.973,-183.594
-0.472,-0.215,0.764,62.195,32.166,-186.279
-0.438,-0.094,0.806,62.195,28.381,-188.660
-0.417,0.036,0.826,59.143,23.926,-191.589
-0.405,0.161,0.815,52.429,18.860,-194.092
-0.391,0.268,0.788,43.945,14.282,-195.679
-0.383,0.369,0.745,36.377,10.437,-195.801
-0.356,0.474,0.690,33.447,6.409,-194.641
-0.339,0.580,0.650,35.034,1.953,-192.261
-0.315,0.685,0.599,39.612,-1.953,-188.293
-0.290,0.796,0.550,43.640,-5.371,-183.594
-0.274,0.912,0.497,44.861,-8.301,-178.650
-0.276,1.020,0.433,41.077,-9.888,-172.485
-0.279,1.117,0.369,33.813,-9.644,-164.246
-0.277,1.206,0.313,26.550,-7.324,-154.724
-0.289,1.276,0.273,19.958,-3.357,-143.982
-0.323,1.318,0.252,14.404,0.854,-131.714
-0.351,1.330,0.244,11.963,4.700,-117.737
-0.383,1.340,0.257,15.381,6.470,-102.783
-0.415,1.333,0.272,26.001,4.578,-87.830
-0.448,1.305,0.282,38.757,-0.244,-72.937
-0.485,1.260,0.287,47.974,-5.005,-58.777
-0.525,1.205,0.282,51.147,-8.362,-46.021
-0.569,1.153,0.269,48.950,-9.338,-20.020
-0.612,1.101,0.256,42.419,-7.385,-27.222
-0.650,1.045,0.252,32.959,12.634,-15.930
-0.701,0.940,0.265,11.658,9.033,-12.512
-0.717,0.889,0.288,2.930,15.320,-10.132
-0.729,0.847,0.317,-2.014,19.958,-8.118
-0.747,0.804,0.346,-2.869,20.935,-6.287
-0.759,0.763,0.368,-0.916,19.714,-4.150
-0.763,0.729,0.384,2.380,17.151,-2.319
-0.760,0.701,0.391,5.066,14.465,-0.916
-0.756,0.679,0.392,4.456,12.207,0.183
-0.754,0.666,0.393,0.244,10.925,0.732
-0.756,0.661,0.391,-6.042,10.010,1.160
-0.770,0.659,0.394,-12.390,10.254,1.648
-0.780,0.643,0.395,-16.602,10.681,3.113
-0.781,0.624,0.405,-17.944,11.292,5.371
-0.786,0.600,0.419,-16.113,11.108,7.690
-0.790,0.568,0.429,-12.817,9.705,9.888
-0.791,0.538,0.436,-8.728,7.751,11.780
-0.790,0.519,0.439,-4.395,5.615,12.695
-0.796,0.504,0.433,-0.732,2.991,13.184
-0.803,0.488,0.429,0.732,0.977,13.916
-0.809,0.465,0.426,0.427,0.122,14.832
-0.812,0.438,0.429,-0.793,0.122,15.442
-0.817,0.416,0.433,-2.075,0.488,15.503
-0.820,0.398,0.438,-3.418,0.916,15.137
-0.821,0.385,0.437,-5.493,0.916,14.587
-0.817,0.379,0.428,-8.606,0.916,13.672
-0.813,0.382,0.415,-12.390,1.221,12.634
-0.803,0.397,0.402,-15.320,1.526,11.658
-0.797,0.416,0.388,-16.602,1.404,10.986
-0.796,0.427,0.383,-15.869,1.099,11.047
-0.797,0.428,0.379,-13.855,0.427,11.902
-0.797,0.422,0.378,-11.963,-0.366,12.756
-0.797,0.420,0.377,-10.315,-0.854,13.123
-0.798,0.422,0.376,-9.827,-1.221,13.062
-0.802,0.422,0.372,-10.864,-1.160,12.878
-0.803,0.422,0.365,-12.329,-1.099,12.817
-0.805,0.422,0.358,-12.817,-0.854,12.695
-0.813,0.419,0.358,-12.878,-0.854,12.329
-0.823,0.409,0.358,-11.658,-0.977,12.146
-0.825,0.401,0.355,-8.911,-1.526,11.902
-0.831,0.394,0.349,-5.188,-2.625,11.353
-0.835,0.386,0.341,-1.221,-4.272,10.437
-0.837,0.380,0.330,1.404,-5.127,9.460
-0.842,0.376,0.324,2.197,-4.944,8.301
-0.843,0.375,0.322,2.319,-3.845,6.714
-0.841,0.376,0.323,1.892,-2.441,5.127
-0.839,0.379,0.326,1.160,-1.526,3.540
-0.831,0.385,0.326,-0.183,-0.916,2.319
-0.828,0.396,0.329,-1.038,-0.183,1.404
-0.824,0.403,0.329,-1.587,0.061,0.061
-0.823,0.422,0.329,-0.549,0.122,-0.122
-0.823,0.423,0.331,1.099,-0.244,0.000
-0.822,0.419,0.335,2.441,-0.244,0.549
-0.823,0.412,0.343,3.479,-0.122,0.732
-0.818,0.411,0.347,3.662,-0.244,0.610
-0.814,0.418,0.354,3.662,0.000,-0.183
-0.813,0.424,0.354,2.625,0.183,-0.916
-0.814,0.430,0.353,0.793,0.610,-1.099
-0.816,0.435,0.353,-0.732,1.221,-0.854
-0.814,0.435,0.355,-0.732,1.770,-0.732
-0.812,0.437,0.359,-0.122,1.953,-0.916
-0.812,0.437,0.360,0.427,1.831,-0.916
-0.815,0.433,0.364,0.793,1.587,-0.610
-0.816,0.433,0.366,1.770,0.854,-0.427
-0.817,0.432,0.367,3.296,0.061,-0.671
-0.818,0.434,0.367,3.906,-0.244,-0.732
-0.819,0.435,0.363,2.441,-0.427,-0.854
-0.819,0.438,0.360,0.061,0.244,-1.038
-0.821,0.441,0.359,-1.892,1.038,-1.404
-0.819,0.446,0.357,-2.625,1.648,-1.526
-0.816,0.454,0.352,-2.930,1.648,-1.587
-0.817,0.460,0.346,-2.808,1.526,-1.465
-0.818,0.462,0.340,-3.296,1.587,-0.977
-0.915,1.957,0.019,55.603,-24.536,-148.071
-0.952,2.248,-0.068,36.255,-29.480,-133.911
-0.976,2.475,-0.153,24.292,-35.767,-109.924
-0.997,2.572,-0.236,18.677,-40.344,-78.186
-1.020,2.543,-0.319,21.606,-42.236,-42.480
-1.017,2.501,-0.414,24.841,-39.124,-8.057
-1.006,2.389,-0.453,21.179,-31.616,21.362
-0.994,2.271,-0.495,12.146,-20.264,46.997
-0.962,2.120,-0.484,-2.441,-7.446,68.298
-0.931,1.953,-0.453,-18.250,5.981,86.182
-0.893,1.765,-0.402,-34.607,19.775,101.074
-0.867,1.569,-0.339,-48.218,31.921,113.708
-0.847,1.387,-0.276,-58.960,41.626,123.413
-0.838,1.225,-0.207,-67.139,48.279,130.554
-0.839,1.082,-0.121,-74.036,52.734,135.986
-0.850,0.961,-0.022,-80.444,55.115,140.015
-0.870,0.848,0.091,-88.013,54.932,142.395
-0.884,0.746,0.230,-97.839,51.941,144.165
-0.895,0.637,0.388,-107.239,46.509,146.545
-0.884,0.541,0.511,-113.220,39.246,149.719
-0.886,0.416,0.652,-114.075,31.311,153.687
-0.860,0.315,0.697,-112.244,24.048,157.959
-0.836,0.168,0.810,-110.046,16.479,162.170
-0.789,0.091,0.806,-112.549,12.268,167.725
-0.744,-0.009,0.835,-112.854,6.409,171.021
-0.716,-0.115,0.843,-112.000,-0.977,173.279
-0.684,-0.220,0.829,-110.107,-9.399,173.340
-0.662,-0.320,0.796,-109.131,-19.104,171.204
-0.631,-0.402,0.736,-109.253,-29.236,167.847
-0.602,-0.484,0.657,-109.558,-39.307,163.696
-0.568,-0.567,0.571,-109.192,-47.546,159.363
-0.524,-0.657,0.479,-106.934,-52.917,155.212
-0.484,-0.759,0.385,-102.234,-54.810,151.428
-0.456,-0.859,0.302,-95.093,-53.284,147.949
-0.435,-0.946,0.227,-84.473,-49.316,144.287
-0.422,-1.010,0.158,-72.937,-43.823,139.465
-0.411,-1.065,0.103,-64.148,-37.720,132.629
-0.405,-1.114,0.057,-60.059,-32.043,124.329
-0.403,-1.157,0.017,-59.692,-28.015,113.708
-0.402,-1.187,-0.025,-59.692,-24.353,101.135
-0.405,-1.208,-0.064,-58.105,-20.935,89.111
-0.411,-1.221,-0.106,-53.711,-17.334,77.881
-0.427,-1.225,-0.148,-48.462,-12.329,66.467
-0.444,-1.217,-0.166,-44.861,-5.981,54.871
-0.496,-1.296,-0.170,-42.542,2.502,42.480
-0.481,-1.046,-0.178,-44.861,12.634,37.781
-0.522,-1.199,0.074,-23.682,18.127,28.015
-0.552,-1.192,0.060,-7.385,27.344,16.724
-0.598,-1.121,0.092,-1.831,41.138,11.536
-0.647,-1.103,0.229,5.066,37.170,2.686
-0.738,-1.104,0.427,2.991,29.846,-5.737
-0.790,-1.053,0.483,-15.869,25.452,-16.663
-0.820,-0.971,0.500,-35.522,12.085,-29.480
-0.845,-0.868,0.416,-44.678,-2.808,-38.818
-0.860,-0.748,0.345,-44.250,-13.672,-41.199
-0.877,-0.639,0.231,-34.729,-17.456,-34.729
-0.898,-0.565,0.157,-15.747,-14.709,-23.315
-0.922,-0.620,0.129,12.939,-10.986,-14.771
-0.934,-0.570,0.095,28.198,-3.601,-6.409
-0.952,-0.566,0.093,34.973,-0.244,-3.235
-0.959,-0.554,0.086,32.471,0.366,-4.822
-0.955,-0.546,0.078,24.658,-1.160,-7.996
-0.944,-0.538,0.074,16.724,-4.578,-11.414
-0.934,-0.517,0.049,12.207,-7.507,-14.099
-0.928,-0.500,0.013,9.766,-8.850,-15.808
-0.927,-0.489,-0.012,7.996,-9.094,-16.724
-0.926,-0.475,-0.032,6.348,-8.057,-16.968
-0.925,-0.462,-0.028,5.981,-5.920,-16.663
-0.919,-0.447,-0.019,7.141,-2.625,-16.052
-0.916,-0.428,-0.001,8.423,1.465,-15.503
-0.910,-0.416,0.027,8.789,5.493,-14.526
-0.909,-0.410,0.060,7.874,8.362,-13.672
-0.911,-0.402,0.102,6.836,9.094,-12.878
-0.911,-0.396,0.129,5.798,8.240,-12.634
-0.915,-0.390,0.140,4.272,7.080,-13.306
-0.918,-0.384,0.152,4.272,5.188,-14.282
-0.921,-0.374,0.159,6.226,2.625,-14.893
-0.920,-0.360,0.154,8.728,0.427,-15.259
-0.921,-0.342,0.147,10.254,-1.404,-14.771
-0.923,-0.328,0.140,10.803,-3.235,-13.306
-0.922,-0.326,0.128,10.742,-4.822,-11.353
-0.920,-0.330,0.114,10.376,-5.676,-8.850
-0.926,-0.339,0.097,9.827,-5.920,-6.714
-0.924,-0.348,0.082,8.850,-5.737,-5.188
-0.922,-0.357,0.074,7.141,-5.066,-3.967
-0.920,-0.367,0.064,5.615,-4.456,-3.235
-0.921,-0.374,0.053,5.066,-3.845,-2.625
-0.917,-0.375,0.043,5.127,-3.235,-1.953
-0.917,-0.379,0.035,4.761,-2.869,-1.648
-0.917,-0.385,0.029,3.662,-2.930,-1.770
-0.919,-0.393,0.021,1.770,-3.113,-2.197
-0.921,-0.400,0.015,-0.183,-3.418,-2.930
-0.920,-0.399,0.008,-1.465,-3.540,-3.357
-0.922,-0.394,0.005,-1.526,-3.174,-3.662
-0.926,-0.388,0.003,-1.404,-2.686,-3.601
-0.926,-0.384,0.005,-0.977,-1.831,-3.174
-0.927,-0.386,0.013,0.122,-0.793,-2.380
-0.927,-0.407,0.015,1.221,0.549,-1.282
-0.928,-0.400,0.041,0.549,1.465,-0.183
-0.929,-0.420,0.049,1.221,1.526,0.366
-0.930,-0.425,0.047,3.113,2.197,-0.305
-0.927,-0.419,0.049,4.150,2.197,-0.427
-0.924,-0.416,0.051,3.967,1.831,-0.854
-0.922,-0.414,0.050,3.174,1.831,-1.404
-0.924,-0.408,0.050,2.502,1.831,-1.587
-0.925,-0.400,0.052,1.770,1.648,-1.953
-0.923,-0.392,0.056,0.732,1.648,-2.258
-0.924,-0.388,0.059,-0.488,1.526,-1.953
-0.922,-0.393,0.062,-0.916,1.465,-1.160
-0.919,-0.402,0.061,-0.610,1.465,-0.488
-0.917,-0.411,0.058,-0.183,1.465,-0.061
-0.915,-0.419,0.058,0.427,1.465,0.305
-0.914,-0.421,0.056,1.099,1.343,0.427
-0.915,-0.412,0.054,1.892,1.282,0.183
-0.914,-0.404,0.053,1.709,1.038,-0.244
-0.911,-0.401,0.055,0.427,0.732,-0.366
-0.912,-0.404,0.053,-0.122,0.305,-0.061
-0.912,-0.407,0.050,0.977,0.061,0.671
-0.911,-0.408,0.046,1.587,0.244,1.038

-0.638,-1.889,0.556,7.263,-40.039,255.737
-0.704,-2.126,0.448,5.493,-50.781,233.643
-0.786,-2.322,0.317,-8.423,-57.800,208.435
-0.904,-2.546,0.155,-26.367,-61.157,186.646
-1.031,-2.792,-0.014,-36.072,-62.378,167.603
-1.155,-3.011,-0.169,-29.724,-63.354,145.874
-1.257,-3.169,-0.304,-9.949,-63.660,117.859
-1.311,-3.253,-0.420,13.062,-59.875,83.801
-1.315,-3.246,-0.515,29.602,-50.598,45.166
-1.304,-3.113,-0.559,33.081,-34.424,5.127
-1.246,-2.932,-0.580,29.968,-10.071,-33.203
-1.165,-2.665,-0.549,24.780,42.358,-103.149
-0.989,-2.130,-0.387,27.527,65.491,-128.357
-0.892,-1.892,-0.276,36.804,84.595,-147.644
-0.793,-1.670,-0.160,48.584,98.511,-162.842
-0.693,-1.465,-0.032,59.143,108.521,-175.049
-0.589,-1.259,0.116,65.979,115.417,-185.791
-0.486,-1.053,0.300,66.833,118.286,-195.862
-0.379,-0.812,0.520,62.500,117.554,-205.322
-0.296,-0.556,0.714,57.861,113.037,-214.661
-0.150,-0.352,0.951,53.284,106.384,-223.206
-0.072,-0.083,1.089,44.556,93.750,-232.178
0.000,0.184,1.172,30.457,79.163,-237.915
0.036,0.434,1.155,15.930,62.195,-240.723
0.048,0.671,1.068,1.160,45.410,-241.455
0.040,0.873,0.942,-12.146,31.738,-238.586
0.019,1.025,0.810,-23.743,22.766,-231.750
-0.013,1.158,0.690,-30.151,18.738,-221.008
-0.054,1.258,0.616,-27.832,18.188,-207.520
-0.078,1.325,0.594,-17.456,18.799,-191.895
-0.095,1.395,0.613,-0.916,19.165,-175.049
-0.112,1.427,0.639,20.935,16.907,-158.447
-0.138,1.426,0.667,40.588,11.963,-142.212
-0.174,1.404,0.674,50.537,6.287,-126.770
-0.217,1.356,0.659,50.293,0.916,-112.183
-0.283,1.310,0.639,42.358,-2.319,-99.304
-0.357,1.262,0.589,31.006,-4.761,-87.769
-0.421,1.217,0.528,19.714,-6.470,-77.637
-0.487,1.171,0.480,9.644,-6.653,-68.970
-0.553,1.127,0.441,1.709,-5.981,-60.913
-0.598,1.094,0.409,-3.052,-5.127,-53.467
-0.636,1.060,0.386,-2.808,-5.249,-45.715
-0.670,1.024,0.378,1.038,-5.981,-37.598
-0.689,0.984,0.372,6.958,-7.812,-29.541
-0.713,0.938,0.374,12.939,-10.193,-21.667
-0.742,0.886,0.375,16.602,-12.634,-14.282
-0.769,0.818,0.370,16.785,-13.306,-7.385
-0.801,0.753,0.381,14.526,-12.085,-2.380
-0.816,0.685,0.388,11.108,-10.681,0.427
-0.826,0.638,0.399,7.202,-8.179,1.465
-0.832,0.609,0.408,3.052,-5.676,1.038
-0.834,0.587,0.418,-0.793,-3.601,-0.122
-0.835,0.569,0.421,-4.089,-1.892,-0.977
-0.837,0.553,0.428,-5.371,-1.099,-1.099
-0.834,0.539,0.435,-5.859,-0.793,-0.488
-0.824,0.525,0.444,-5.676,-1.038,0.916
-0.816,0.512,0.455,-5.676,-1.587,2.441
-0.814,0.497,0.468,-6.470,-2.686,4.028
-0.809,0.479,0.473,-7.385,-3.967,5.615
-0.807,0.462,0.477,-8.484,-5.005,6.836
-0.804,0.443,0.476,-9.399,-5.676,7.141
-0.804,0.434,0.474,-10.254,-5.615,7.080
-0.794,0.415,0.464,-12.512,-6.104,6.531
-0.792,0.401,0.456,-11.719,-6.531,5.981
-0.792,0.390,0.447,-9.705,-6.958,5.676
-0.793,0.381,0.437,-6.958,-7.812,5.127
-0.794,0.376,0.430,-4.333,-8.789,4.761
-0.796,0.373,0.425,-2.930,-9.277,4.456
-0.793,0.370,0.420,-2.930,-9.338,4.639
-0.795,0.371,0.416,-4.028,-8.911,4.456
-0.797,0.367,0.406,-6.165,-8.362,4.395
-0.795,0.364,0.395,-8.789,-7.751,4.395
-0.794,0.367,0.387,-10.986,-7.019,3.662
-0.793,0.375,0.377,-12.451,-6.348,2.869
-0.788,0.391,0.366,-13.611,-5.737,2.014
-0.785,0.415,0.361,-14.893,-5.005,1.343
-0.778,0.437,0.356,-15.686,-3.967,1.160
-0.776,0.452,0.349,-16.907,-4.089,1.282
-0.773,0.472,0.341,-17.700,-4.395,1.831
-0.774,0.483,0.333,-17.456,-4.333,2.686
-0.776,0.485,0.326,-16.418,-4.456,3.662
-0.780,0.483,0.328,-15.015,-4.211,4.822
-0.785,0.474,0.328,-13.428,-3.967,5.737
-0.792,0.465,0.335,-11.963,-3.723,6.592
-0.806,0.443,0.354,-8.667,-3.784,6.592
-0.812,0.429,0.362,-6.897,-4.272,6.409
-0.819,0.418,0.368,-4.639,-4.761,5.859
-0.827,0.408,0.367,-2.258,-5.310,5.188
-0.832,0.398,0.363,-0.549,-5.859,4.395
-0.835,0.392,0.356,0.183,-5.859,3.418
-0.837,0.390,0.348,-0.244,-5.554,2.502
-0.840,0.392,0.343,-1.160,-4.822,1.526
-0.841,0.396,0.341,-1.587,-4.028,0.732
-0.835,0.401,0.341,-1.404,-3.174,-0.183
-0.830,0.409,0.345,-1.160,-2.686,-0.916
-0.825,0.419,0.346,-1.038,-2.319,-1.465
-0.820,0.425,0.348,-0.793,-1.892,-1.648
-0.812,0.432,0.345,-0.549,-1.892,-1.831
-0.803,0.441,0.343,-0.366,-1.953,-1.892
-0.800,0.449,0.338,0.000,-2.014,-1.892
-0.799,0.456,0.340,-0.366,-2.136,-1.648
-0.794,0.455,0.340,-0.183,-2.136,-1.099
-0.794,0.453,0.348,1.160,-2.075,-0.732
-0.796,0.450,0.348,2.991,-2.563,-0.244
-0.800,0.448,0.349,4.028,-2.869,0.244
-0.803,0.442,0.347,3.845,-2.747,0.793
-0.808,0.438,0.347,2.869,-2.258,1.038
-0.813,0.435,0.347,2.197,-1.526,0.793
-0.817,0.436,0.347,1.587,-1.160,-0.366
-0.814,0.435,0.351,1.221,-0.671,-0.549
-0.811,0.435,0.356,2.136,-0.854,-0.549
-0.813,0.433,0.362,2.991,-1.221,-0.610
-0.812,0.429,0.366,3.113,-1.587,-0.549
-0.815,0.428,0.365,2.869,-1.770,-0.610
-0.816,0.434,0.359,2.319,-1.953,-0.916
-0.815,0.443,0.349,1.587,-1.892,-1.038
-0.815,0.453,0.340,0.610,-1.526,-1.038
-0.816,0.462,0.333,-0.488,-0.977,-0.916
-0.816,0.466,0.327,-1.465,0.122,-0.488
-0.796,2.274,0.355,46.692,30.518,-258.240
-0.888,2.647,0.285,22.461,7.812,-238.708
-1.017,3.057,0.208,18.250,-12.573,-198.914
-1.137,3.155,0.084,23.621,-30.396,-145.813
-1.209,3.177,-0.108,40.894,-46.875,-91.187
-1.254,3.155,-0.262,50.232,-52.612,-46.265
-1.286,3.079,-0.356,39.001,-53.040,-13.550
-1.286,3.006,-0.423,12.268,-46.509,13.611
-1.198,2.909,-0.443,-15.381,-34.729,39.368
-1.182,2.649,-0.377,-29.541,-24.963,65.918
-1.067,2.416,-0.305,-35.339,-11.719,94.666
-1.017,2.118,-0.203,-38.025,3.906,123.047
-0.949,1.839,-0.166,-40.405,17.029,147.583
-0.913,1.560,-0.125,-50.476,26.184,163.635
-0.883,1.312,-0.085,-70.251,31.738,171.021
-0.851,1.105,-0.054,-94.543,35.828,171.326
-0.811,0.902,0.003,-119.202,40.344,165.588
-0.793,0.719,0.085,-143.494,44.678,160.339
-0.771,0.545,0.191,-157.776,47.729,158.020
-0.743,0.373,0.314,-156.555,48.523,159.851
-0.710,0.180,0.466,-141.113,45.776,164.490
-0.659,-0.025,0.602,-116.333,39.551,171.997
-0.593,-0.217,0.739,-92.102,31.799,180.542
-0.545,-0.442,0.841,-74.463,24.719,187.073
-0.499,-0.656,0.928,-65.247,19.653,188.110
-0.468,-0.845,1.020,-59.753,14.771,184.509
-0.464,-1.007,1.058,-55.908,7.751,176.941
-0.473,-1.193,1.074,-53.833,-7.690,165.833
-0.472,-1.312,1.021,-58.777,-30.090,149.719
-0.482,-1.336,0.938,-71.838,-49.011,131.592
-0.500,-1.363,0.883,-76.843,-64.331,112.671
-0.470,-1.304,0.686,-73.486,-71.655,96.680
-0.469,-1.236,0.534,-62.134,-76.416,83.191
-0.484,-1.163,0.378,-48.584,-77.332,71.716
-0.507,-1.097,0.229,-38.086,-75.317,61.951
-0.534,-1.035,0.101,-32.104,-71.960,53.040
-0.557,-0.985,-0.020,-28.015,-65.369,45.410
-0.580,-0.948,-0.139,-25.574,-55.359,39.185
-0.612,-0.914,-0.200,-27.466,-44.067,34.607
-0.639,-0.874,-0.234,-30.090,-32.104,31.372
-0.671,-0.845,-0.230,-30.090,-20.569,29.053
-0.700,-0.850,-0.182,-27.649,-10.132,27.588
-0.711,-0.713,-0.180,-20.630,-2.258,28.625
-0.739,-0.781,-0.076,-0.183,-1.099,23.376
-0.750,-0.737,-0.007,10.681,-1.648,20.508
-0.760,-0.714,0.014,12.695,1.770,19.226
-0.783,-0.727,0.047,10.864,2.930,16.907
-0.794,-0.764,0.112,7.385,3.540,14.832
-0.804,-0.787,0.124,1.343,7.324,12.329
-0.813,-0.801,0.139,0.000,10.681,9.583
-0.821,-0.785,0.137,0.671,13.794,6.409
-0.831,-0.771,0.130,1.892,14.648,2.319
-0.844,-0.739,0.120,3.052,13.611,-1.831
-0.849,-0.708,0.166,6.348,7.996,-5.310
-0.859,-0.652,0.181,6.226,5.249,-8.545
-0.877,-0.600,0.175,4.028,4.028,-11.414
-0.897,-0.578,0.207,1.709,3.174,-14.282
-0.904,-0.526,0.164,-1.343,2.808,-16.113
-0.919,-0.474,0.131,-2.625,4.028,-17.456
-0.938,-0.437,0.150,-0.610,1.404,-18.311
-0.947,-0.389,0.143,0.488,-1.404,-17.212
-0.963,-0.350,0.133,1.038,-2.441,-15.381
-0.974,-0.321,0.115,1.343,-3.479,-13.733
-0.981,-0.285,0.094,0.977,-4.272,-11.780
-0.986,-0.256,0.075,-0.183,-5.005,-9.521
-0.987,-0.252,0.071,-0.916,-6.592,-7.324
-0.983,-0.266,0.058,-1.953,-7.507,-4.761
-0.980,-0.287,0.052,-2.625,-8.057,-2.075
-0.972,-0.318,0.061,-0.427,-8.484,0.488
-0.962,-0.348,0.051,2.441,-7.202,2.258
-0.957,-0.362,0.078,4.578,-5.920,4.333
-0.937,-0.383,0.089,5.737,-5.249,6.226
-0.936,-0.408,0.080,6.714,-2.441,6.714
-0.930,-0.423,0.083,9.399,-0.793,6.287
-0.925,-0.424,0.085,11.719,-0.244,4.883
-0.930,-0.421,0.093,11.230,0.000,2.625
-0.932,-0.417,0.101,8.911,-1.404,0.305
-0.932,-0.415,0.107,5.859,-3.540,-1.282
-0.937,-0.418,0.108,4.211,-5.432,-1.648
-0.937,-0.420,0.102,3.967,-6.775,-1.465
-0.938,-0.424,0.094,3.845,-7.202,-0.916
-0.937,-0.427,0.088,3.052,-7.080,-0.488
-0.935,-0.423,0.087,1.953,-6.226,-0.122
-0.935,-0.412,0.083,0.305,-5.371,0.183
-0.931,-0.407,0.081,-1.404,-4.944,0.427
-0.932,-0.406,0.076,-2.808,-5.005,0.488
-0.933,-0.399,0.066,-2.441,-5.005,0.488
-0.931,-0.389,0.052,-1.770,-5.005,0.366
-0.930,-0.382,0.041,-1.953,-5.188,-0.061
-0.926,-0.380,0.032,-2.441,-5.188,-0.061
-0.927,-0.381,0.026,-2.014,-5.066,0.305
-0.925,-0.385,0.027,-1.770,-4.700,0.366
-0.925,-0.387,0.031,-1.892,-4.211,0.366
-0.927,-0.388,0.036,-1.648,-3.601,0.366
-0.927,-0.386,0.042,-0.427,-3.113,0.122
-0.922,-0.386,0.046,0.671,-2.808,0.183
-0.916,-0.393,0.050,1.404,-2.319,0.671
-0.910,-0.408,0.051,2.319,-1.648,1.221
-0.910,-0.423,0.059,3.052,-1.282,1.709
-0.907,-0.433,0.065,3.235,-1.282,1.343
-0.904,-0.443,0.066,1.587,-1.343,-0.488
-0.901,-0.441,0.080,-1.038,-1.709,-1.892
-0.896,-0.434,0.084,-3.235,-2.380,-2.747
-0.899,-0.440,0.075,-2.869,-2.258,-3.540
-0.897,-0.446,0.058,-0.671,-2.197,-4.211
-0.897,-0.442,0.044,0.916,-1.831,-4.761
-0.904,-0.432,0.031,1.343,-1.099,-4.822
-0.912,-0.415,0.031,1.160,-0.183,-4.700
-0.915,-0.400,0.041,0.488,0.488,-4.333
-0.921,-0.389,0.050,-0.671,0.793,-3.967
-0.927,-0.384,0.058,-0.977,0.793,-3.540
-0.933,-0.377,0.063,-0.366,-0.061,-3.235
-0.936,-0.369,0.063,0.732,-1.221,-3.052
-0.938,-0.369,0.053,1.099,-2.319,-2.869
-0.936,-0.370,0.049,1.038,-3.479,-2.563
-0.933,-0.373,0.047,1.709,-4.333,-1.831
-0.930,-0.377,0.042,2.747,-4.578,-0.854
-0.929,-0.385,0.037,3.723,-4.517,0.000
-0.923,-0.395,0.032,3.967,-4.150,0.732

-0.846,-2.250,0.263,-38.452,-40.466,225.098
-0.961,-2.647,0.225,-2.197,-50.110,209.961
-1.064,-2.962,0.166,32.837,-60.547,182.617
-1.182,-3.149,0.071,51.697,-68.237,141.479
-1.249,-3.187,-0.047,43.091,-68.054,93.140
-1.296,-3.105,-0.193,10.132,-56.885,43.762
-1.289,-2.920,-0.307,-27.588,-37.903,0.427
-1.253,-2.683,-0.367,-52.124,-15.076,-38.696
-1.164,-2.416,-0.362,-55.298,7.385,-72.449
-1.052,-2.139,-0.304,-41.260,28.076,-99.548
-0.937,-1.887,-0.224,-18.982,45.105,-120.239
-0.839,-1.672,-0.144,1.343,57.373,-134.460
-0.751,-1.496,-0.058,16.785,65.491,-143.005
-0.688,-1.357,0.032,29.175,68.726,-147.522
-0.639,-1.252,0.139,39.246,66.711,-150.574
-0.613,-1.182,0.268,47.180,60.059,-156.067
-0.592,-1.043,0.483,60.120,39.429,-163.513
-0.580,-0.907,0.573,67.139,31.067,-174.988
-0.548,-0.726,0.643,71.655,26.794,-188.049
-0.504,-0.522,0.691,68.848,25.879,-200.317
-0.454,-0.323,0.715,58.777,26.245,-209.961
-0.401,-0.140,0.719,45.105,26.672,-216.919
-0.377,0.018,0.707,31.738,26.306,-221.069
-0.338,0.150,0.685,21.057,25.818,-223.145
-0.288,0.272,0.668,15.503,26.367,-223.999
-0.251,0.403,0.641,13.672,25.635,-224.365
-0.217,0.536,0.593,13.367,22.888,-223.328
-0.197,0.670,0.541,12.817,18.433,-221.008
-0.186,0.806,0.499,12.878,14.404,-217.285
-0.167,0.933,0.460,14.038,11.414,-211.487
-0.163,1.040,0.426,16.602,8.179,-204.102
-0.176,1.108,0.383,16.357,5.615,-194.702
-0.201,1.150,0.341,11.841,4.883,-183.960
-0.223,1.188,0.298,6.165,5.066,-172.852
-0.256,1.222,0.260,2.930,5.554,-161.987
-0.280,1.259,0.227,2.258,4.700,-150.879
-0.303,1.301,0.206,5.127,2.686,-139.343
-0.335,1.336,0.191,11.658,0.122,-126.587
-0.371,1.351,0.181,19.287,-2.380,-111.938
-0.403,1.346,0.177,26.306,-4.761,-95.886
-0.431,1.318,0.180,31.555,-5.859,-80.078
-0.473,1.269,0.179,33.447,-6.287,-65.491
-0.512,1.224,0.172,33.508,-6.470,-53.345
-0.545,1.188,0.163,32.166,-5.920,-44.556
-0.584,1.152,0.156,28.625,-4.211,-37.231
-0.618,1.113,0.151,22.888,-1.526,-30.518
-0.648,1.064,0.158,17.029,2.625,-18.738
-0.685,0.954,0.202,8.118,13.245,-14.404
-0.684,0.929,0.228,6.042,15.869,-11.047
-0.681,0.928,0.250,3.967,17.212,-8.423
-0.691,0.937,0.285,0.244,17.395,-5.066
-0.703,0.919,0.299,-4.700,15.564,-0.122
-0.719,0.887,0.317,-7.507,13.367,5.554
-0.735,0.838,0.330,-6.226,10.559,10.925
-0.745,0.793,0.344,-2.258,8.179,15.503
-0.757,0.741,0.361,2.991,5.859,18.799
-0.761,0.681,0.380,7.690,4.272,20.630
-0.767,0.634,0.389,10.193,3.479,20.569
-0.773,0.603,0.387,8.850,2.869,19.470
-0.779,0.587,0.382,4.639,3.235,17.944
-0.793,0.575,0.383,-0.854,4.578,16.907
-0.807,0.555,0.395,-5.554,6.165,17.456
-0.816,0.525,0.415,-7.263,7.080,19.043
-0.818,0.497,0.427,-6.226,6.042,20.630
-0.817,0.469,0.431,-3.845,3.052,22.278
-0.818,0.449,0.418,-2.686,-0.610,23.315
-0.818,0.436,0.393,-3.296,-3.296,23.621
-0.814,0.436,0.359,-5.920,-4.944,23.376
-0.811,0.449,0.323,-10.315,-4.822,21.790
-0.814,0.465,0.292,-14.343,-3.113,20.203
-0.814,0.475,0.277,-17.456,-0.793,19.470
-0.813,0.475,0.278,-18.799,2.075,19.531
-0.809,0.468,0.297,-17.883,4.761,20.020
-0.801,0.451,0.324,-15.137,6.287,20.691
-0.791,0.434,0.348,-11.597,6.226,21.057
-0.782,0.424,0.360,-9.155,4.700,20.874
-0.782,0.421,0.359,-8.789,2.197,19.775
-0.792,0.422,0.345,-9.277,-0.427,18.677
-0.802,0.427,0.323,-9.399,-2.258,17.578
-0.813,0.427,0.307,-8.606,-3.540,16.785
-0.825,0.421,0.298,-6.897,-3.540,16.052
-0.834,0.409,0.296,-5.188,-2.747,15.442
-0.839,0.395,0.303,-3.174,-1.465,14.465
-0.840,0.384,0.312,-1.282,-0.488,12.817
-0.841,0.379,0.318,0.183,0.244,10.620
-0.847,0.380,0.319,0.061,0.305,8.301
-0.853,0.385,0.311,-1.099,-0.183,6.470
-0.854,0.392,0.301,-2.014,-0.854,4.944
-0.857,0.396,0.293,-2.563,-1.038,3.723
-0.862,0.402,0.283,-2.686,-1.038,3.052
-0.861,0.408,0.278,-2.258,-0.916,2.563
-0.856,0.416,0.277,-1.465,-0.549,2.258
-0.848,0.423,0.279,-0.488,0.122,2.075
-0.838,0.427,0.281,0.488,0.427,2.136
-0.834,0.432,0.282,0.671,0.427,2.136
-0.836,0.434,0.280,0.732,0.671,2.319
-0.832,0.435,0.288,0.854,0.977,2.625
-0.830,0.434,0.296,1.709,1.526,2.563
-0.829,0.438,0.304,2.991,1.587,2.319
-0.826,0.434,0.303,3.235,1.038,2.136
-0.829,0.436,0.303,1.953,1.343,1.831
-0.831,0.432,0.305,0.122,2.197,1.587
-0.822,0.428,0.313,-1.099,3.479,0.732
-0.816,0.437,0.328,-0.671,4.822,-0.732
-0.813,0.456,0.343,1.587,5.249,-1.770
-0.810,0.471,0.356,6.165,2.136,-1.221
-0.813,0.467,0.349,5.920,0.305,-0.305
-0.817,0.463,0.337,4.822,-0.671,0.366
-0.825,0.462,0.320,3.479,-1.343,0.610
-0.835,0.463,0.305,2.502,-1.526,0.488
-0.842,0.457,0.293,1.465,-1.282,0.854
-0.847,0.452,0.289,0.671,-0.549,0.977
-0.847,0.451,0.297,0.549,0.671,0.732
-0.846,0.450,0.307,1.099,1.465,0.427
-0.842,0.449,0.315,1.465,1.587,0.183
-0.840,0.450,0.317,1.343,1.221,-0.183
-0.835,0.452,0.318,1.099,1.160,-0.122
-0.832,0.453,0.318,0.793,1.465,-0.122
-0.826,0.455,0.315,0.061,1.465,-0.183
-0.732,2.240,0.079,31.372,-50.232,-203.735
-0.810,2.444,-0.080,35.461,-63.293,-165.955
-0.881,2.578,-0.252,43.152,-72.693,-125.488
-0.923,2.669,-0.447,46.692,-77.209,-87.219
-0.959,2.691,-0.587,42.419,-79.041,-54.016
-0.988,2.768,-0.735,21.973,-73.425,-27.100
-0.967,2.729,-0.796,-3.113,-61.157,-2.380
-0.860,2.663,-0.795,-21.240,-46.143,22.400
-0.865,2.485,-0.788,-27.344,-31.006,50.049
-0.815,2.318,-0.706,-27.954,-13.916,78.003
-0.750,2.116,-0.641,-31.738,6.836,102.844
-0.714,1.928,-0.537,-39.063,27.527,123.840
-0.683,1.705,-0.450,-51.758,45.349,138.977
-0.668,1.490,-0.359,-66.406,58.838,147.217
-0.666,1.286,-0.277,-81.665,67.993,149.658
-0.672,1.122,-0.196,-96.008,73.120,148.560
-0.688,0.974,-0.120,-106.628,75.317,145.386
-0.712,0.856,-0.034,-112.061,74.219,141.907
-0.733,0.759,0.066,-112.610,70.251,139.648
-0.749,0.674,0.184,-110.718,63.110,138.794
-0.758,0.599,0.314,-108.643,54.871,140.625
-0.778,0.531,0.432,-109.436,48.096,144.653
-0.778,0.444,0.529,-112.671,43.213,148.743
-0.761,0.338,0.543,-115.417,37.048,154.175
-0.780,0.169,0.763,-114.136,23.804,158.813
-0.750,0.051,0.849,-116.394,15.503,164.612
-0.696,-0.095,0.804,-118.835,15.869,172.180
-0.690,-0.227,0.942,-109.924,9.644,178.406
-0.623,-0.373,0.804,-103.333,11.353,182.983
-0.579,-0.494,0.727,-91.797,9.766,185.852
-0.550,-0.607,0.659,-78.125,2.869,185.791
-0.516,-0.724,0.591,-68.909,-4.822,181.213
-0.499,-0.838,0.511,-66.772,-12.939,172.546
-0.479,-0.926,0.429,-69.824,-21.118,159.973
-0.451,-0.989,0.339,-74.890,-26.794,144.531
-0.433,-1.022,0.255,-78.247,-29.236,128.784
-0.432,-1.041,0.174,-78.369,-27.954,114.929
-0.436,-1.026,0.107,-73.608,-24.109,104.370
-0.435,-1.001,0.042,-63.660,-17.273,97.595
-0.430,-1.009,0.000,-52.063,-8.057,95.032
-0.450,-0.979,0.017,-39.551,1.648,96.619
-0.468,-0.999,0.077,-16.724,12.329,98.633
-0.421,-1.380,0.089,19.714,22.339,97.717
-0.436,-1.448,0.140,50.781,23.071,89.905
-0.500,-1.727,0.172,68.909,8.484,80.994
-0.518,-1.912,0.426,67.139,-8.179,56.274
-0.520,-1.888,0.299,32.654,-7.751,27.405
-0.534,-1.761,0.307,13.184,-18.494,-1.709
-0.580,-1.614,0.140,7.507,-24.658,-28.564
-0.607,-1.273,0.027,0.793,-30.090,-46.265
-0.693,-1.098,-0.037,-16.052,-21.606,-56.030
-0.779,-0.906,0.006,-25.085,-16.785,-56.213
-0.847,-0.767,-0.052,-26.855,-8.179,-49.194
-0.919,-0.672,0.026,-14.465,-6.653,-40.344
-0.957,-0.562,-0.003,-0.244,-6.287,-32.166
-1.005,-0.466,-0.035,9.583,-3.296,-26.428
-1.027,-0.391,-0.075,13.245,-0.610,-21.912
-1.038,-0.338,-0.080,12.878,0.305,-18.494
-1.034,-0.284,-0.122,10.498,2.258,-14.771
-1.025,-0.262,-0.135,9.521,4.700,-10.620
-1.004,-0.263,-0.145,9.644,7.141,-5.127
-0.987,-0.295,-0.129,11.414,9.155,0.549
-0.966,-0.333,-0.119,13.733,11.658,5.798
-0.946,-0.369,-0.092,14.587,14.404,9.399
-0.928,-0.410,-0.055,13.367,16.846,10.803
-0.916,-0.442,-0.016,10.315,17.578,10.559
-0.907,-0.475,0.027,8.728,16.174,8.362
-0.893,-0.501,0.057,7.507,13.672,5.066
-0.885,-0.513,0.076,5.371,10.864,1.831
-0.880,-0.512,0.092,3.845,7.324,-1.221
-0.873,-0.506,0.083,2.930,4.517,-4.089
-0.875,-0.495,0.080,2.380,3.784,-8.057
-0.880,-0.469,0.080,3.052,3.601,-12.207
-0.886,-0.434,0.088,3.784,3.662,-16.113
-0.893,-0.404,0.098,3.967,4.089,-19.653
-0.907,-0.376,0.111,3.418,3.967,-22.034
-0.914,-0.351,0.115,3.235,3.235,-22.461
-0.925,-0.334,0.116,3.540,2.563,-21.667
-0.932,-0.325,0.108,3.723,1.892,-19.836
-0.939,-0.324,0.102,2.808,1.465,-17.334
-0.944,-0.330,0.095,0.854,0.671,-15.381
-0.948,-0.340,0.086,-1.404,-0.305,-13.733
-0.947,-0.333,0.069,-4.333,-1.160,-12.390
-0.945,-0.327,0.056,-6.714,-1.770,-11.475
-0.944,-0.322,0.047,-7.874,-2.380,-10.193
-0.950,-0.324,0.041,-8.423,-2.441,-8.972
-0.959,-0.332,0.039,-9.277,-2.563,-8.118
-0.964,-0.339,0.036,-9.521,-2.747,-7.446
-0.969,-0.345,0.031,-9.460,-3.052,-6.775
-0.973,-0.352,0.027,-8.911,-3.723,-6.348
-0.968,-0.356,0.018,-7.812,-4.700,-5.798
-0.958,-0.364,0.009,-5.737,-5.554,-5.066
-0.953,-0.372,0.000,-2.686,-5.859,-4.211
-0.950,-0.381,-0.008,-0.183,-5.432,-3.235
-0.948,-0.390,-0.015,1.221,-4.822,-2.686
-0.945,-0.395,-0.018,1.099,-3.967,-2.686
-0.948,-0.393,-0.015,0.122,-2.563,-2.869
-0.945,-0.388,0.001,-1.160,-1.465,-3.113
-0.941,-0.386,0.015,-2.136,0.000,-2.991
-0.939,-0.385,0.034,-3.235,1.038,-2.319
-0.934,-0.387,0.058,-3.540,0.854,-1.465
-0.928,-0.387,0.062,-2.747,-0.122,-0.732
-0.925,-0.393,0.049,-1.343,-0.488,-0.732
-0.921,-0.398,0.036,-0.427,-0.732,-0.977
-0.915,-0.396,0.019,0.366,-0.793,-1.160
-0.910,-0.391,0.007,0.122,-0.793,-1.282
-0.910,-0.388,0.002,-1.587,-0.977,-1.221
-0.908,-0.396,0.006,-3.235,-1.038,-0.671
-0.908,-0.408,0.008,-3.540,-0.732,-0.061
-0.915,-0.417,0.012,-3.235,-0.366,0.427
-0.916,-0.414,0.015,-2.380,0.183,0.549
-0.917,-0.405,0.016,-0.793,0.427,0.366
-0.920,-0.401,0.020,0.488,0.671,0.183
-0.921,-0.397,0.025,1.648,0.732,0.183
-0.921,-0.394,0.024,2.747,0.610,0.305
-0.924,-0.387,0.021,3.113,0.305,-0.061
-0.923,-0.379,0.017,2.441,0.122,-0.488
-0.928,-0.380,0.015,0.549,0.000,-0.610
-0.931,-0.390,0.019,-2.136,-0.427,-1.160

-0.832,-1.933,0.260,-1.465,-41.992,200.623
-0.926,-2.112,0.161,-0.122,-48.401,174.011
-1.034,-2.252,0.026,-9.094,-52.612,144.775
-1.141,-2.358,-0.131,-25.940,-52.307,119.446
-1.232,-2.450,-0.285,-38.513,-47.729,97.168
-1.330,-2.515,-0.409,-35.889,-40.161,73.730
-1.358,-2.532,-0.489,-18.616,-30.273,49.133
-1.350,-2.513,-0.519,1.343,-17.700,-0.305
-1.240,-2.393,-0.459,21.362,15.808,-23.499
-1.176,-2.290,-0.380,22.217,34.790,-46.753
-1.090,-2.147,-0.285,23.071,51.758,-69.397
-1.016,-1.986,-0.179,24.841,65.430,-90.271
-0.953,-1.837,-0.076,27.344,74.219,-106.323
-0.900,-1.712,0.022,31.555,78.308,-117.615
-0.860,-1.611,0.125,39.917,78.125,-126.587
-0.821,-1.501,0.228,51.147,74.585,-136.047
-0.783,-1.376,0.333,60.852,69.214,-147.400
-0.729,-1.232,0.441,65.308,64.087,-159.485
-0.661,-1.062,0.556,64.148,60.486,-172.363
-0.582,-0.862,0.664,60.425,58.716,-185.913
-0.500,-0.645,0.753,55.664,53.833,-207.825
-0.346,-0.187,0.850,45.898,48.767,-214.172
-0.292,0.014,0.851,42.725,42.175,-216.736
-0.242,0.216,0.817,40.283,35.828,-216.309
-0.200,0.413,0.782,41.321,29.785,-214.600
-0.189,0.556,0.723,43.701,23.743,-209.961
-0.167,0.668,0.653,43.579,19.470,-202.637
-0.159,0.759,0.606,40.833,18.433,-195.496
-0.154,0.828,0.584,34.546,19.836,-189.026
-0.134,0.910,0.597,26.672,23.132,-183.350
-0.108,1.023,0.622,22.156,26.184,-178.162
-0.101,1.135,0.644,24.902,26.306,-172.302
-0.107,1.213,0.664,28.503,23.682,-164.368
-0.120,1.259,0.673,28.625,20.142,-153.381
-0.152,1.268,0.673,25.452,16.113,-140.625
-0.183,1.257,0.654,20.569,11.414,-127.625
-0.224,1.250,0.626,16.418,5.981,-116.028
-0.269,1.254,0.584,13.672,-0.183,-105.347
-0.326,1.259,0.530,12.451,-6.409,-94.727
-0.386,1.247,0.472,10.498,-11.963,-83.435
-0.448,1.219,0.409,6.897,-15.503,-71.655
-0.505,1.184,0.345,3.540,-16.968,-60.120
-0.569,1.149,0.289,1.465,-17.517,-50.232
-0.629,1.111,0.245,0.916,-17.151,-41.504
-0.677,1.071,0.212,1.099,-15.381,-33.325
-0.713,1.023,0.193,1.221,-12.024,-25.879
-0.741,0.980,0.186,-0.061,-7.507,-19.897
-0.760,0.945,0.194,-2.686,-2.441,-15.625
-0.776,0.915,0.213,-5.005,2.380,-11.963
-0.787,0.881,0.233,-6.104,7.324,-8.423
-0.800,0.845,0.278,-5.005,11.292,-4.700
-0.806,0.796,0.325,-2.197,13.000,-0.977
-0.807,0.753,0.371,0.366,13.123,2.808
-0.801,0.725,0.406,0.549,11.230,6.104
-0.794,0.693,0.423,-1.526,7.812,9.338
-0.801,0.670,0.425,-5.127,4.822,11.719
-0.804,0.641,0.414,-8.484,1.709,14.038
-0.803,0.616,0.406,-10.620,-0.061,15.747
-0.807,0.593,0.401,-9.705,-1.038,16.785
-0.809,0.559,0.406,-7.202,-1.465,17.151
-0.813,0.529,0.418,-3.723,-1.343,16.541
-0.821,0.500,0.431,-0.488,-1.160,15.747
-0.827,0.470,0.440,0.916,-1.343,15.259
-0.832,0.440,0.447,0.061,-2.075,15.381
-0.835,0.410,0.445,-1.160,-3.418,15.686
-0.832,0.389,0.436,-2.625,-5.005,15.503
-0.830,0.382,0.421,-3.967,-6.042,14.648
-0.835,0.379,0.404,-5.981,-6.653,13.916
-0.835,0.380,0.380,-8.789,-6.592,13.123
-0.838,0.388,0.353,-11.597,-6.042,12.695
-0.839,0.397,0.331,-13.672,-4.883,12.939
-0.844,0.393,0.320,-14.771,-2.136,13.794
-0.841,0.381,0.326,-12.756,-1.404,14.404
-0.839,0.370,0.337,-10.193,-1.526,14.771
-0.832,0.361,0.340,-8.728,-2.075,14.587
-0.828,0.354,0.341,-8.057,-2.747,14.038
-0.821,0.354,0.336,-8.240,-3.601,12.878
-0.817,0.358,0.326,-8.362,-4.639,11.169
-0.815,0.372,0.313,-8.667,-5.676,9.216
-0.811,0.388,0.304,-8.545,-5.981,7.202
-0.808,0.407,0.301,-8.423,-5.066,5.371
-0.805,0.425,0.303,-7.385,-3.418,3.784
-0.805,0.438,0.311,-6.409,-2.014,2.686
-0.802,0.440,0.325,-5.005,-0.854,2.197
-0.801,0.434,0.341,-3.296,0.244,2.136
-0.803,0.425,0.349,-1.465,0.488,1.770
-0.808,0.422,0.350,0.061,0.000,1.404
-0.810,0.418,0.340,0.549,-0.732,1.099
-0.818,0.421,0.328,-0.061,-1.404,0.916
-0.824,0.431,0.312,-0.671,-1.953,0.671
-0.827,0.444,0.300,-0.366,-2.075,0.305
-0.824,0.451,0.291,0.610,-2.014,0.244
-0.824,0.455,0.290,1.221,-1.465,0.305
-0.821,0.453,0.292,1.343,-0.427,0.549
-0.818,0.452,0.298,0.610,0.732,0.488
-0.815,0.452,0.306,-0.244,2.075,0.549
-0.813,0.450,0.311,-1.221,3.174,0.854
-0.820,0.446,0.318,-2.136,3.967,1.404
-0.828,0.439,0.325,-2.930,4.089,2.014
-0.828,0.428,0.332,-2.014,3.540,2.563
-0.826,0.422,0.335,0.366,2.197,2.991
-0.827,0.418,0.338,2.930,0.916,3.113
-0.826,0.410,0.335,3.784,0.000,3.052
-0.827,0.402,0.336,2.441,0.366,3.052
-0.828,0.401,0.341,1.038,1.099,2.319
-0.823,0.408,0.348,1.526,2.136,0.793
-0.819,0.420,0.354,2.441,2.686,-0.488
-0.821,0.432,0.358,3.052,2.625,-1.099
-0.822,0.435,0.358,2.319,2.441,-0.854
-0.818,0.434,0.356,1.099,2.075,-0.488
-0.816,0.432,0.356,0.305,1.892,-0.244
-0.811,0.437,0.352,0.732,1.526,-0.061
-0.810,0.442,0.347,1.404,0.732,0.244
-0.812,0.445,0.340,1.587,0.122,0.671
-0.816,0.442,0.334,0.977,-0.061,1.404
-0.818,0.442,0.325,0.366,0.000,1.953
-0.820,0.446,0.319,0.610,0.122,1.892
-0.825,0.450,0.318,1.160,0.732,2.014
-0.829,0.444,0.320,0.977,1.709,2.686
-0.797,2.060,0.175,66.956,16.113,-167.175
-0.976,2.245,0.126,65.552,-3.296,-142.151
-1.027,2.496,0.031,65.796,-20.569,-118.774
-1.078,2.675,-0.059,50.903,-29.236,-98.083
-1.127,2.823,-0.129,27.527,-36.621,-76.233
-1.145,2.873,-0.179,6.104,-40.955,-49.500
-1.104,2.819,-0.226,-6.714,-40.710,-18.921
-1.080,2.711,-0.258,-12.146,-37.354,14.954
-1.047,2.527,-0.276,-11.353,-30.823,50.171
-0.986,2.309,-0.272,-9.460,-21.179,82.397
-0.930,2.100,-0.264,-12.085,-11.230,108.215
-0.902,1.896,-0.261,-22.034,-1.831,126.526
-0.884,1.702,-0.250,-39.001,7.324,137.634
-0.860,1.518,-0.220,-61.096,16.357,143.738
-0.834,1.336,-0.174,-84.106,24.475,146.912
-0.814,1.155,-0.113,-102.783,32.349,148.926
-0.801,0.980,-0.028,-112.305,38.757,151.855
-0.794,0.823,0.088,-111.633,41.687,155.701
-0.801,0.641,0.244,-105.469,41.687,160.095
-0.777,0.569,0.353,-102.661,39.917,166.138
-0.765,0.439,0.504,-97.290,34.668,172.729
-0.753,0.272,0.638,-95.825,26.245,177.124
-0.732,0.110,0.726,-97.046,15.564,179.016
-0.737,-0.093,0.797,-97.656,2.319,178.650
-0.691,-0.296,0.814,-102.112,-10.254,175.720
-0.655,-0.455,0.811,-109.985,-19.775,172.302
-0.619,-0.602,0.793,-109.314,-27.039,168.945
-0.566,-0.730,0.751,-101.990,-31.738,165.588
-0.525,-0.841,0.713,-89.722,-34.058,162.903
-0.482,-0.928,0.658,-74.402,-34.302,160.339
-0.458,-1.005,0.581,-56.580,-34.546,156.311
-0.462,-1.042,0.482,-39.307,-35.767,150.085
-0.473,-1.052,0.355,-29.358,-37.781,139.709
-0.485,-1.026,0.230,-31.738,-42.297,125.183
-0.507,-0.973,0.117,-43.945,-47.546,108.337
-0.526,-0.891,0.014,-59.631,-51.208,92.163
-0.543,-0.799,-0.100,-72.205,-51.697,79.773
-0.573,-0.726,-0.209,-77.454,-48.462,72.388
-0.565,-0.714,-0.278,-78.186,-41.138,69.763
-0.566,-0.707,-0.327,-76.904,-29.846,70.679
-0.571,-0.770,-0.307,-73.547,-15.259,73.608
-0.576,-0.853,-0.251,-67.810,0.000,75.806
-0.590,-0.935,-0.164,-58.899,14.465,76.416
-0.605,-0.996,-0.058,-47.119,25.574,74.829
-0.604,-1.014,0.034,-33.386,32.349,71.350
-0.620,-1.010,0.098,-22.400,36.133,66.406
-0.642,-1.010,0.140,-16.602,36.926,60.364
-0.661,-1.013,0.144,-13.672,35.156,53.223
-0.713,-0.986,0.136,-13.000,28.503,45.044
-0.702,-1.079,0.273,-8.057,15.503,32.898
-0.672,-1.047,0.244,-13.184,11.719,21.606
-0.687,-1.067,0.195,-16.052,16.724,9.338
-0.723,-1.073,0.206,-12.573,18.127,-1.465
-0.734,-1.042,0.231,-7.080,17.761,-6.287
-0.766,-0.955,0.231,-6.409,18.860,-10.620
-0.806,-0.879,0.226,-11.475,20.081,-15.137
-0.846,-0.784,0.206,-17.395,18.433,-17.822
-0.878,-0.685,0.178,-19.226,14.954,-19.775
-0.924,-0.567,0.146,-18.738,12.329,-20.691
-0.965,-0.433,0.101,-18.372,11.597,-20.386
-1.000,-0.324,0.086,-18.799,10.376,-19.043
-1.014,-0.262,0.092,-18.799,8.118,-16.052
-1.014,-0.251,0.123,-14.954,4.578,-11.963
-1.003,-0.295,0.160,-7.690,2.197,-7.080
-0.976,-0.349,0.181,-0.183,0.977,-1.953
-0.959,-0.418,0.169,6.226,0.305,2.625
-0.936,-0.465,0.209,10.315,-1.099,6.042
-0.900,-0.514,0.196,11.536,-2.380,6.714
-0.891,-0.547,0.163,10.193,-0.183,3.906
-0.884,-0.551,0.158,7.812,0.977,-0.488
-0.880,-0.535,0.166,3.784,1.099,-5.127
-0.882,-0.512,0.180,0.305,0.793,-9.827
-0.886,-0.486,0.192,-0.671,-0.732,-12.817
-0.895,-0.464,0.202,0.427,-2.319,-13.855
-0.903,-0.448,0.202,2.869,-4.395,-13.428
-0.909,-0.438,0.204,5.371,-6.470,-12.268
-0.916,-0.428,0.196,6.836,-7.874,-11.169
-0.924,-0.420,0.193,6.714,-9.338,-10.803
-0.928,-0.404,0.184,3.296,-10.986,-11.230
-0.924,-0.396,0.170,-1.892,-12.451,-11.658
-0.921,-0.391,0.155,-6.042,-13.489,-11.475
-0.913,-0.395,0.133,-7.019,-13.306,-10.071
-0.903,-0.404,0.109,-5.249,-12.268,-7.690
-0.897,-0.422,0.087,-2.441,-9.888,-4.883
-0.892,-0.448,0.066,0.916,-6.958,-2.747
-0.882,-0.474,0.055,4.333,-4.028,-1.038
-0.878,-0.496,0.055,7.629,-1.221,-0.183
-0.879,-0.505,0.060,9.827,0.854,-0.671
-0.874,-0.500,0.071,9.705,1.343,-2.625
-0.875,-0.490,0.082,7.385,0.793,-4.089
-0.879,-0.480,0.088,4.517,-0.488,-5.676
-0.887,-0.476,0.089,2.014,-2.014,-7.263
-0.895,-0.469,0.087,0.549,-3.296,-8.423
-0.905,-0.450,0.079,0.610,-3.723,-9.033
-0.910,-0.429,0.070,0.916,-3.296,-9.338
-0.911,-0.421,0.064,0.610,-2.563,-8.606
-0.914,-0.418,0.060,0.732,-1.404,-7.507
-0.907,-0.416,0.061,1.892,0.244,-5.981
-0.908,-0.410,0.070,2.930,2.136,-4.456
-0.913,-0.411,0.085,3.296,3.601,-3.357
-0.910,-0.413,0.097,2.258,3.845,-2.991
-0.906,-0.419,0.105,0.549,3.296,-2.991
-0.904,-0.422,0.105,-0.610,2.502,-3.052
-0.902,-0.420,0.101,-0.427,1.953,-2.869
-0.899,-0.428,0.094,0.183,1.709,-2.380
-0.898,-0.440,0.091,0.122,1.770,-2.136
-0.901,-0.451,0.087,0.488,1.953,-2.136
-0.901,-0.447,0.081,1.709,2.197,-2.502
-0.896,-0.432,0.077,2.747,2.747,-2.869
-0.894,-0.420,0.082,3.052,3.601,-2.991
-0.896,-0.414,0.092,3.296,4.395,-2.869
-0.900,-0.408,0.099,3.906,4.517,-2.625
-0.901,-0.406,0.105,3.845,3.967,-2.625
-0.905,-0.400,0.111,2.869,3.479,-2.563
-0.909,-0.405,0.120,0.977,2.380,-2.502
-0.914,-0.417,0.130,-1.587,1.221,-2.930
-0.919,-0.423,0.137,-2.869,-0.366,-3.113
-0.919,-0.422,0.135,-2.930,-1.404,-3.418
-0.922,-0.413,0.130,-2.808,-2.014,-3.479

