aX,aY,aZ,gX,gY,gZ
0.293,0.635,-1.775,37.842,161.255,-27.405
0.401,0.739,-1.595,36.438,222.534,-13.123
0.534,0.753,-1.327,42.908,273.682,8.301
0.671,0.666,-1.045,53.467,315.674,36.987
0.804,0.428,-0.694,67.444,343.994,65.979
1.024,0.383,-0.548,83.008,365.173,91.248
1.218,0.200,-0.172,87.769,407.532,129.150
1.462,-0.167,0.501,73.853,439.392,152.954
1.592,-0.419,1.123,40.588,468.994,164.124
1.687,-0.523,1.627,-3.723,490.723,165.283
1.777,-0.565,2.018,-40.344,491.943,157.654
1.802,-0.624,2.363,-63.354,478.821,146.301
1.749,-0.721,2.675,-76.538,455.200,130.615
1.662,-0.752,2.859,-84.717,420.715,106.750
1.597,-0.676,2.903,-79.651,377.319,74.463
1.585,-0.579,2.914,-49.927,325.623,40.161
1.575,-0.482,2.982,-0.793,270.264,12.329
1.498,-0.467,3.078,52.002,217.224,-5.554
1.424,-0.486,3.186,87.952,166.260,-19.287
1.366,-0.463,3.228,92.041,121.521,-28.137
1.320,-0.376,3.172,69.397,88.013,-30.823
1.281,-0.283,3.060,33.264,61.157,-27.771
1.238,-0.233,2.926,-2.136,36.987,-19.470
1.186,-0.224,2.786,-31.311,16.418,-9.094
1.145,-0.245,2.667,-50.537,-1.831,-0.549
1.117,-0.265,2.575,-59.753,-19.958,4.517
1.104,-0.265,2.490,-59.814,-39.185,5.005
1.104,-0.258,2.401,-49.683,-61.584,1.831
1.107,-0.286,2.335,-31.555,-86.121,-2.258
1.104,-0.347,2.290,-12.085,-110.657,-6.592
1.103,-0.399,2.226,2.502,-133.423,-12.756
1.108,-0.424,2.152,10.254,-153.809,-19.775
1.106,-0.436,2.062,12.207,-172.058,-25.879
1.100,-0.450,1.961,10.193,-189.697,-31.677
1.079,-0.439,1.823,4.944,-206.665,-36.072
1.058,-0.397,1.651,-0.977,-221.985,-39.307
1.033,-0.357,1.468,-5.188,-235.657,-41.077
1.002,-0.362,1.339,-6.104,-247.131,-42.358
0.949,-0.377,1.224,-4.456,-257.141,-45.715
0.891,-0.417,1.150,-1.648,-264.832,-52.734
0.838,-0.472,1.108,2.075,-274.597,-64.636
0.806,-0.431,1.040,8.179,-287.292,-82.153
0.785,-0.307,0.915,20.996,-304.077,-115.845
0.760,0.011,0.572,59.021,-334.656,-122.742
0.698,0.109,0.432,74.402,-337.708,-120.728
0.620,0.159,0.307,77.332,-329.956,-111.938
0.532,0.184,0.184,65.308,-312.439,-100.464
0.440,0.204,0.055,40.833,-285.522,-87.402
0.341,0.230,-0.073,9.521,-252.136,-73.853
0.257,0.268,-0.196,-21.240,-215.820,-60.974
0.176,0.275,-0.250,-45.349,-179.993,-49.438
0.106,0.273,-0.244,-59.875,-149.414,-40.161
0.060,0.310,-0.228,-64.575,-126.953,-34.546
0.022,0.357,-0.220,-59.082,-112.854,-29.175
-0.023,0.369,-0.205,-45.654,-104.431,-21.057
-0.069,0.315,-0.148,-29.480,-97.656,-11.230
-0.138,0.235,-0.066,-17.944,-89.233,-2.747
-0.201,0.185,-0.009,-14.648,-63.782,6.958
-0.300,0.146,0.070,-20.203,-55.786,10.193
-0.337,0.113,0.132,-25.146,-43.762,12.939
-0.360,0.095,0.185,-30.518,-31.982,14.099
-0.364,0.100,0.222,-34.302,-20.386,14.587
-0.362,0.106,0.279,-34.302,-10.803,15.564
-0.365,0.102,0.356,-30.579,-4.150,17.212
-0.371,0.090,0.426,-25.452,-0.916,18.860
-0.382,0.064,0.483,-19.226,-0.183,19.836
-0.394,0.021,0.537,-12.512,-0.610,20.142
-0.410,-0.023,0.596,-6.958,-0.427,18.921
-0.417,-0.043,0.632,-4.578,0.549,16.052
-0.414,-0.037,0.660,-4.395,2.136,12.268
-0.407,-0.022,0.678,-4.395,4.395,9.705
-0.404,-0.016,0.713,-4.517,7.385,9.216
-0.401,-0.020,0.748,-5.066,9.460,9.705
-0.406,-0.030,0.770,-5.981,11.047,10.925
-0.411,-0.042,0.789,-6.775,12.451,11.902
-0.417,-0.054,0.813,-6.714,13.428,12.207
-0.417,-0.061,0.842,-6.714,14.526,11.780
-0.415,-0.065,0.876,-6.775,14.954,11.047
-0.417,-0.073,0.902,-7.507,14.404,10.315
-0.419,-0.081,0.912,-8.667,13.184,9.583
-0.420,-0.084,0.905,-9.399,11.169,8.667
-0.426,-0.087,0.900,-8.179,9.216,8.057
-0.434,-0.093,0.897,-5.859,7.263,7.446
-0.442,-0.095,0.892,-4.272,5.981,7.141
-0.446,-0.098,0.886,-3.845,5.066,7.019
-0.450,-0.103,0.882,-3.845,4.761,6.836
-0.453,-0.106,0.878,-4.639,4.944,6.714
-0.456,-0.107,0.875,-5.432,5.554,6.165
-0.456,-0.107,0.882,-5.615,5.920,5.310
-0.458,-0.104,0.889,-5.493,6.104,4.639
-0.456,-0.102,0.890,-4.883,5.493,3.906
-0.455,-0.105,0.889,-3.601,4.333,3.418
-0.453,-0.110,0.894,-2.197,3.723,3.052
-0.447,-0.108,0.900,-1.282,2.991,2.502
-0.445,-0.103,0.904,-0.732,2.747,2.136
-0.444,-0.103,0.908,-0.366,2.380,2.136
-0.442,-0.105,0.914,0.000,1.831,1.831
-0.438,-0.102,0.919,0.610,1.221,1.221
-0.436,-0.093,0.919,1.221,0.732,0.427
-0.433,-0.085,0.919,1.648,0.000,0.244
-0.433,-0.085,0.921,1.953,-0.305,0.366
-0.435,-0.085,0.922,1.648,-0.366,0.671
-0.433,-0.076,0.923,0.305,-0.366,1.099
-0.431,-0.076,0.924,0.793,-0.916,1.099
-0.432,-0.075,0.922,1.526,-1.526,1.099
-0.430,-0.073,0.913,2.380,-2.319,0.977
-0.434,-0.069,0.901,3.113,-3.174,0.671
-0.440,-0.068,0.889,3.601,-3.906,0.732
-0.444,-0.070,0.878,3.906,-4.272,0.793
-0.445,-0.068,0.870,3.845,-4.028,0.488
-0.443,-0.066,0.868,3.174,-3.540,0.183
-0.439,-0.071,0.871,2.319,-2.930,0.305
-0.438,-0.082,0.878,1.526,-2.502,0.305
-0.434,-0.084,0.882,0.793,-2.258,-0.305
-0.430,-0.079,0.882,0.549,-2.441,-1.221
-0.425,-0.067,0.879,0.916,-3.235,-1.587
-0.422,-0.055,0.876,1.831,-4.089,-1.892
-0.421,-0.046,0.872,2.747,-5.188,-1.282
-0.427,-0.047,0.851,3.357,-5.432,-0.366
-0.205,0.155,2.631,5.005,44.678,21.057
-0.139,0.167,2.900,-15.137,19.531,30.518
-0.095,0.111,3.037,-28.137,-12.146,40.833
-0.043,-0.011,3.004,-30.090,-48.096,48.218
0.022,-0.139,2.827,-21.484,-84.290,48.767
0.107,-0.230,2.592,-5.798,-115.356,41.870
0.176,-0.271,2.366,13.489,-136.963,29.724
0.222,-0.286,2.161,35.095,-150.024,15.808
0.264,-0.305,1.983,52.734,-158.203,3.235
0.302,-0.334,1.830,60.486,-166.077,-6.775
0.337,-0.346,1.698,56.946,-177.368,-16.785
0.363,-0.335,1.582,45.227,-192.932,-26.855
0.383,-0.296,1.468,29.358,-212.524,-36.682
0.402,-0.231,1.342,13.367,-234.192,-45.654
0.428,-0.170,1.173,0.244,-254.700,-53.162
0.444,-0.116,0.972,-10.132,-271.362,-60.242
0.452,-0.054,0.750,-19.409,-283.630,-67.017
0.444,0.016,0.529,-28.503,-291.687,-71.716
0.429,0.087,0.300,-37.354,-294.922,-73.425
0.415,0.169,0.052,-46.936,-294.312,-71.655
0.388,0.234,-0.210,-58.777,-290.894,-66.528
0.356,0.272,-0.489,-71.838,-282.654,-57.678
0.297,0.278,-0.763,-85.999,-269.775,-45.715
0.260,0.243,-1.047,-100.403,-255.737,-30.640
0.240,0.176,-1.267,-111.206,-228.943,-15.625
0.241,0.107,-1.416,-114.197,-198.914,0.061
0.269,0.040,-1.495,-109.436,-168.518,17.090
0.322,-0.051,-1.529,-96.863,-133.484,33.203
0.369,-0.172,-1.537,-78.308,-93.079,45.532
0.412,-0.306,-1.533,-55.969,-47.241,53.467
0.451,-0.439,-1.517,-33.936,-0.854,54.565
0.473,-0.551,-1.471,-16.724,43.396,47.241
0.471,-0.614,-1.388,-6.775,83.191,31.372
0.450,-0.624,-1.260,-3.906,118.469,8.850
0.398,-0.580,-1.087,-4.822,151.306,-16.296
0.335,-0.490,-0.889,-4.150,182.922,-41.077
0.281,-0.328,-0.625,2.319,213.867,-60.913
0.210,-0.136,-0.324,16.724,244.141,-72.693
0.166,0.048,0.010,33.997,272.156,-73.120
0.140,0.165,0.335,45.166,292.969,-63.538
0.115,0.175,0.611,45.532,303.162,-49.988
0.146,0.139,0.882,36.865,302.185,-38.086
0.189,0.161,1.237,25.513,292.847,-32.288
0.214,0.200,1.616,22.583,281.677,-31.738
0.185,0.220,1.946,34.668,275.513,-33.142
0.156,0.215,2.151,57.190,272.766,-35.156
0.147,0.181,2.244,72.449,265.869,-37.537
0.126,0.146,2.281,67.688,248.291,-40.771
0.092,0.182,2.369,46.326,221.680,-44.861
0.036,0.255,2.480,22.522,193.054,-46.631
-0.041,0.324,2.554,6.042,167.969,-42.725
-0.112,0.337,2.536,-1.160,145.386,-33.142
-0.153,0.336,2.448,-0.244,125.122,-19.714
-0.166,0.260,2.289,7.263,102.966,-3.540
-0.164,0.199,2.106,17.639,96.436,6.653
-0.155,0.153,1.939,29.175,98.267,14.221
-0.150,0.134,1.878,37.476,87.891,20.264
-0.099,0.099,1.900,44.434,69.580,24.597
-0.083,0.035,1.871,48.218,41.565,25.757
-0.070,-0.005,1.750,44.067,27.466,23.315
-0.046,-0.052,1.590,35.217,19.531,16.907
-0.056,-0.068,1.463,18.616,5.920,7.996
-0.082,-0.067,1.371,-1.526,-0.366,0.366
-0.106,-0.023,1.284,-19.897,-5.859,-5.493
-0.102,0.052,1.206,-32.593,-7.202,-7.385
-0.113,0.004,1.289,-36.011,-16.296,-6.653
-0.144,0.059,1.247,-35.156,-23.254,-13.489
-0.132,0.119,1.201,-31.494,-6.042,-14.771
-0.145,0.199,1.169,-25.269,-6.348,-16.113
-0.146,0.234,1.149,-20.386,-6.775,-15.930
-0.140,0.260,1.114,-15.991,-3.113,-14.587
-0.125,0.270,1.089,-14.648,-4.272,-10.071
-0.106,0.247,1.068,-13.794,-7.690,-5.371
-0.079,0.215,1.047,-12.939,-10.681,-0.488
-0.049,0.179,1.027,-12.451,-13.306,4.883
-0.026,0.136,1.009,-12.146,-14.343,8.240
-0.006,0.098,1.002,-11.841,-15.137,10.010
0.006,0.069,0.998,-11.108,-15.381,10.315
0.017,0.052,0.989,-9.888,-14.832,9.277
0.025,0.045,0.979,-8.240,-13.672,7.568
0.025,0.043,0.969,-6.348,-12.207,5.676
0.024,0.041,0.956,-3.967,-10.559,4.333
0.023,0.041,0.947,-1.953,-8.728,3.357
0.020,0.042,0.941,-0.183,-7.568,2.686
0.017,0.042,0.931,0.977,-6.958,2.380
0.013,0.040,0.925,1.526,-6.592,2.380
0.009,0.036,0.920,1.709,-6.897,2.136
0.002,0.031,0.920,1.465,-7.385,1.892
0.000,0.028,0.924,1.282,-7.996,1.587
-0.002,0.024,0.925,0.977,-8.545,1.038
-0.005,0.023,0.928,0.610,-9.033,0.549
-0.009,0.025,0.931,0.366,-9.094,0.427
-0.011,0.028,0.936,0.977,-8.789,0.549
-0.011,0.028,0.936,2.136,-7.690,0.793
-0.010,0.025,0.936,3.540,-6.592,1.282
-0.011,0.021,0.934,4.272,-5.188,1.892
-0.008,0.016,0.932,4.578,-3.845,2.197
-0.006,0.011,0.932,4.456,-2.625,2.319
-0.006,0.010,0.939,3.845,-1.770,2.258
-0.012,0.013,0.943,2.625,-1.404,1.770
-0.016,0.021,0.947,1.648,-1.404,1.343
-0.021,0.027,0.951,1.221,-1.587,1.343
-0.024,0.031,0.951,1.526,-1.709,1.404
-0.030,0.032,0.953,1.953,-1.587,1.770
-0.035,0.034,0.957,2.502,-1.648,1.831
-0.038,0.037,0.954,2.747,-2.319,1.709
-0.039,0.039,0.946,2.380,-3.113,1.404
-0.044,0.046,0.942,1.892,-3.967,0.793
-0.048,0.055,0.938,1.404,-4.395,0.244
-0.052,0.062,0.939,1.282,-4.456,0.122
-0.053,0.061,0.933,1.282,-3.784,0.366
-0.055,0.057,0.927,1.099,-3.418,0.610
-0.052,0.053,0.928,0.488,-2.991,1.038
-0.049,0.055,0.937,-0.244,-2.441,1.160
-0.047,0.056,0.950,-0.488,-1.709,1.343
-0.045,0.054,0.960,-0.244,-0.793,1.465
-0.043,0.051,0.966,0.488,-0.183,1.221
-0.040,0.050,0.973,0.977,0.366,0.854
-0.040,0.049,0.980,1.282,0.732,0.488

0.326,0.621,-1.777,-0.977,192.261,-1.953
0.431,0.735,-1.600,-13.916,253.967,8.545
0.546,0.817,-1.401,-17.944,302.673,23.865
0.664,0.810,-1.162,-4.456,338.196,44.678
0.920,0.722,-0.944,21.301,362.366,70.923
0.919,0.439,-0.298,46.265,375.732,95.215
1.145,0.254,-0.223,56.274,397.095,119.202
1.240,0.038,0.157,42.236,444.824,152.222
1.443,-0.211,0.679,16.357,466.309,162.537
1.637,-0.352,1.199,-6.531,481.384,158.752
1.655,-0.568,1.811,-22.766,488.403,153.992
1.606,-0.803,2.276,-31.982,468.445,138.672
1.598,-0.871,2.497,-34.302,428.955,104.553
1.591,-0.765,2.580,-17.700,381.409,61.279
1.625,-0.614,2.650,24.841,325.500,20.874
1.636,-0.558,2.786,83.435,267.944,-5.432
1.593,-0.601,2.973,132.751,217.407,-16.602
1.516,-0.702,3.128,150.208,178.528,-17.395
1.447,-0.736,3.202,129.578,153.503,-12.878
1.342,-0.747,3.203,82.703,139.893,-5.737
1.246,-0.733,3.176,27.344,127.563,-1.892
1.194,-0.670,3.098,-17.639,106.201,-0.305
1.157,-0.591,2.956,-41.565,78.918,0.854
1.119,-0.532,2.824,-46.631,49.438,0.916
1.076,-0.500,2.708,-40.039,19.348,-0.488
1.034,-0.484,2.606,-30.457,-7.019,-2.380
0.998,-0.475,2.498,-22.827,-30.762,-4.089
0.966,-0.479,2.391,-17.578,-51.208,-4.761
0.952,-0.512,2.319,-13.550,-68.420,-5.432
0.941,-0.559,2.266,-11.597,-83.435,-6.592
0.936,-0.598,2.208,-11.841,-97.473,-9.521
0.948,-0.626,2.134,-12.085,-125.732,-20.081
0.994,-0.592,1.978,-11.414,-139.465,-26.917
0.998,-0.533,1.877,-8.484,-153.687,-33.569
0.993,-0.478,1.763,-4.456,-169.556,-39.124
0.986,-0.433,1.640,-0.732,-184.998,-42.969
0.966,-0.387,1.511,2.380,-198.792,-45.837
0.944,-0.339,1.390,5.554,-210.999,-48.828
0.921,-0.292,1.264,9.705,-222.046,-52.307
0.910,-0.256,1.181,14.832,-231.567,-56.274
0.885,-0.237,1.107,18.799,-238.464,-59.082
0.858,-0.198,1.021,20.020,-242.981,-62.439
0.827,-0.179,0.936,20.264,-246.582,-65.430
0.796,-0.197,0.874,18.738,-247.925,-67.688
0.749,-0.182,0.791,14.160,-246.338,-70.435
0.702,-0.120,0.678,7.996,-242.981,-73.242
0.638,-0.063,0.555,2.991,-239.197,-74.158
0.575,-0.029,0.441,-0.244,-234.375,-72.449
0.501,0.004,0.325,-8.362,-216.309,-66.772
0.369,0.072,0.190,-12.573,-205.444,-64.819
0.304,0.110,0.152,-16.968,-195.068,-63.232
0.250,0.135,0.117,-20.935,-186.401,-61.279
0.205,0.184,0.069,-23.437,-179.321,-59.265
0.161,0.242,0.011,-22.034,-172.852,-56.458
0.111,0.286,-0.046,-17.273,-166.565,-51.636
0.059,0.293,-0.075,-10.803,-158.875,-45.288
0.011,0.263,-0.078,-7.446,-148.315,-38.513
-0.032,0.260,-0.078,-9.399,-133.362,-32.471
-0.081,0.281,-0.083,-15.198,-115.906,-26.306
-0.131,0.278,-0.048,-21.423,-98.694,-18.616
-0.192,0.232,0.009,-27.588,-83.496,-10.681
-0.231,0.208,0.043,-34.546,-70.374,-5.737
-0.254,0.225,0.052,-40.161,-59.387,-3.113
-0.276,0.257,0.052,-41.382,-50.110,-0.671
-0.297,0.259,0.077,-21.179,-38.086,7.385
-0.351,0.178,0.189,-18.127,-34.241,10.254
-0.385,0.117,0.254,-9.766,-30.518,11.963
-0.415,0.049,0.318,-4.944,-26.123,12.268
-0.448,-0.003,0.376,-4.333,-20.081,11.597
-0.474,-0.024,0.424,-6.836,-12.817,9.521
-0.489,-0.020,0.463,-10.437,-5.066,7.507
-0.495,-0.013,0.513,-13.611,1.343,6.470
-0.497,-0.006,0.566,-15.137,6.042,7.019
-0.498,-0.006,0.611,-15.076,9.155,8.728
-0.499,-0.022,0.655,-13.733,10.437,10.620
-0.500,-0.047,0.702,-13.000,11.230,12.512
-0.507,-0.072,0.727,-13.184,12.268,13.428
-0.509,-0.086,0.738,-13.855,13.794,12.756
-0.509,-0.091,0.759,-14.404,15.381,11.780
-0.501,-0.094,0.794,-13.611,17.273,11.169
-0.496,-0.096,0.837,-12.329,18.677,10.986
-0.487,-0.096,0.871,-11.292,19.165,10.925
-0.484,-0.097,0.892,-9.766,18.616,11.353
-0.484,-0.101,0.906,-7.751,17.700,11.719
-0.478,-0.103,0.918,-6.042,16.602,11.353
-0.476,-0.107,0.934,-4.456,15.564,10.559
-0.477,-0.114,0.951,-3.418,14.587,9.888
-0.478,-0.117,0.960,-3.540,13.855,9.033
-0.478,-0.117,0.959,-3.845,12.939,7.629
-0.495,-0.126,0.962,-3.601,11.658,7.385
-0.496,-0.127,0.960,-2.991,10.742,6.775
-0.496,-0.123,0.955,-2.075,9.705,6.042
-0.495,-0.123,0.955,-0.977,9.033,5.249
-0.489,-0.122,0.955,0.000,7.935,4.456
-0.484,-0.117,0.955,0.549,6.470,3.479
-0.475,-0.119,0.954,0.916,5.005,2.930
-0.467,-0.125,0.956,0.854,3.479,2.502
-0.461,-0.128,0.954,0.732,2.380,2.258
-0.455,-0.126,0.949,0.366,1.404,1.648
-0.452,-0.119,0.941,0.122,0.732,1.221
-0.453,-0.112,0.937,0.061,0.122,0.916
-0.453,-0.110,0.930,0.244,-0.610,0.671
-0.454,-0.111,0.924,0.366,-1.038,0.305
-0.452,-0.104,0.919,0.244,-1.343,-0.244
-0.445,-0.095,0.911,0.244,-1.709,-0.977
-0.436,-0.084,0.905,0.610,-2.136,-1.343
-0.430,-0.082,0.902,1.282,-2.502,-1.282
-0.426,-0.081,0.897,1.526,-3.052,-0.977
-0.424,-0.080,0.892,1.404,-3.357,-0.671
-0.422,-0.076,0.888,1.038,-3.418,-0.610
-0.422,-0.070,0.882,0.854,-3.540,-0.122
-0.430,-0.062,0.867,1.282,-4.150,0.366
-0.438,-0.070,0.862,1.465,-4.639,1.160
-0.448,-0.076,0.852,1.770,-4.517,1.221
-0.450,-0.075,0.841,1.587,-4.333,0.488
-0.452,-0.070,0.837,1.770,-4.028,0.000
-0.448,-0.068,0.840,2.136,-3.540,-0.244
-0.446,-0.068,0.844,2.563,-3.052,-0.244
-0.445,-0.069,0.850,2.197,-2.686,-0.122
-0.302,0.289,2.472,22.461,42.969,30.762
-0.239,0.282,2.695,32.776,34.729,43.335
-0.151,0.197,2.828,46.814,21.912,57.434
-0.049,0.036,2.841,59.875,3.235,69.214
0.072,-0.157,2.758,65.796,-21.790,73.914
0.172,-0.342,2.630,60.242,-53.467,70.190
0.249,-0.464,2.494,45.715,-89.600,57.068
0.310,-0.511,2.358,30.212,-125.977,38.513
0.350,-0.522,2.203,19.531,-157.471,19.043
0.389,-0.496,2.032,15.869,-182.800,-0.061
0.418,-0.438,1.872,18.250,-200.256,-17.395
0.435,-0.374,1.713,23.804,-211.121,-33.081
0.450,-0.295,1.561,29.175,-219.360,-46.387
0.463,-0.203,1.411,31.250,-227.661,-57.983
0.473,-0.103,1.268,28.259,-237.610,-67.139
0.476,-0.009,1.115,21.057,-248.718,-72.510
0.479,0.073,0.934,11.597,-258.911,-74.280
0.474,0.141,0.716,0.061,-267.456,-72.876
0.462,0.200,0.476,-13.489,-272.827,-69.275
0.442,0.252,0.256,-29.663,-274.048,-63.416
0.419,0.287,0.056,-46.814,-270.813,-55.725
0.408,0.302,-0.114,-61.584,-264.954,-46.692
0.396,0.286,-0.288,-70.984,-257.080,-36.804
0.390,0.248,-0.505,-72.998,-247.253,-27.649
0.368,0.206,-0.714,-69.519,-236.511,-19.287
0.391,0.131,-0.966,-63.110,-221.375,-12.390
0.393,0.064,-1.196,-55.237,-198.486,-9.216
0.393,0.033,-1.385,-46.875,-176.025,-5.432
0.394,0.013,-1.534,-38.330,-148.682,-0.488
0.392,-0.031,-1.642,-29.114,-113.770,4.578
0.377,-0.098,-1.697,-21.667,-72.266,9.094
0.356,-0.169,-1.697,-17.090,-27.710,12.207
0.318,-0.233,-1.620,-16.174,15.076,12.146
0.284,-0.277,-1.496,-17.090,54.626,8.118
0.253,-0.294,-1.341,-18.311,90.149,1.160
0.219,-0.262,-1.139,-19.958,121.826,-7.202
0.174,-0.184,-0.887,-18.921,151.550,-15.503
0.154,-0.069,-0.605,-10.071,181.580,-19.836
0.133,0.033,-0.342,8.728,212.891,-18.555
0.114,0.112,-0.093,32.776,243.042,-11.780
0.110,0.156,0.143,55.786,266.663,-0.183
0.122,0.147,0.348,74.158,284.119,14.526
0.156,0.082,0.527,83.374,295.959,27.771
0.175,-0.016,0.684,76.416,299.133,34.363
0.195,-0.089,0.862,47.974,287.842,32.776
0.213,-0.102,1.098,6.775,263.916,25.085
0.230,-0.078,1.371,-31.738,237.976,14.954
0.225,-0.056,1.612,-58.899,216.248,4.761
0.201,-0.038,1.793,-72.754,198.425,-4.395
0.179,-0.009,1.925,-74.402,183.044,-12.634
0.146,0.033,2.035,-65.674,172.119,-20.203
0.103,0.084,2.126,-49.683,165.405,-26.917
0.048,0.132,2.197,-28.137,162.659,-31.006
-0.010,0.157,2.251,-2.563,163.269,-31.921
-0.049,0.205,2.295,25.818,166.748,-30.029
-0.088,0.180,2.271,53.650,162.354,-23.010
-0.088,0.154,2.174,71.228,163.635,-19.104
-0.076,0.114,2.047,75.378,171.448,-15.564
-0.085,0.118,2.004,61.890,155.518,-10.254
-0.117,0.107,2.050,33.691,116.333,-1.953
-0.123,0.081,2.084,0.549,62.683,5.981
-0.124,0.047,2.015,-30.701,18.555,8.118
-0.119,0.035,1.922,-54.016,-6.958,3.784
-0.109,0.069,1.845,-62.622,-20.264,-1.160
-0.134,0.115,1.733,-55.298,-16.907,-5.493
-0.182,0.131,1.729,-35.889,-5.859,-4.944
-0.180,0.170,1.696,-12.695,-1.038,-1.343
-0.159,0.071,1.634,7.385,20.447,0.854
-0.127,0.033,1.552,18.799,14.526,-2.747
-0.151,0.072,1.500,15.686,17.761,-4.089
-0.123,0.090,1.430,9.033,13.977,-5.554
-0.140,0.122,1.399,-2.563,-4.028,-7.019
-0.120,0.121,1.361,-12.695,-14.099,-6.775
-0.111,0.120,1.316,-19.958,-26.062,-6.226
-0.092,0.115,1.262,-24.231,-36.316,-6.042
-0.078,0.112,1.205,-24.414,-40.039,-7.385
-0.068,0.114,1.156,-21.790,-40.771,-8.179
-0.058,0.121,1.117,-17.090,-38.818,-8.789
-0.053,0.131,1.081,-11.719,-34.851,-8.911
-0.042,0.139,1.046,-7.202,-31.189,-7.568
-0.035,0.144,1.013,-4.395,-28.320,-5.676
-0.021,0.144,0.981,-3.235,-26.306,-3.357
-0.006,0.136,0.959,-3.479,-25.391,-0.977
0.000,0.132,0.937,-4.944,-25.574,1.038
0.009,0.124,0.922,-6.531,-24.658,3.418
0.012,0.118,0.907,-7.324,-24.109,5.188
0.016,0.105,0.895,-7.324,-23.499,7.202
0.018,0.086,0.881,-6.714,-22.644,8.667
0.019,0.068,0.869,-5.798,-22.095,8.789
0.018,0.052,0.861,-4.211,-21.423,8.118
0.016,0.040,0.854,-2.136,-20.447,6.836
0.013,0.033,0.855,0.244,-18.921,5.188
0.007,0.037,0.860,1.831,-17.761,2.991
0.001,0.044,0.861,2.197,-17.212,1.709
-0.004,0.049,0.865,1.587,-17.090,1.099
-0.009,0.052,0.868,0.732,-16.724,0.793
-0.018,0.051,0.874,0.061,-16.052,0.793
-0.023,0.052,0.883,-0.427,-15.381,1.038
-0.028,0.047,0.885,-0.793,-14.099,1.160
-0.034,0.044,0.887,-0.793,-12.451,1.160
-0.042,0.044,0.891,-0.244,-10.742,0.916
-0.049,0.049,0.894,0.732,-8.972,0.610
-0.058,0.054,0.898,1.648,-7.202,0.549
-0.061,0.062,0.903,2.991,-5.615,0.916
-0.058,0.068,0.908,4.028,-4.150,2.075
-0.055,0.069,0.913,4.517,-2.991,3.357
-0.049,0.059,0.919,4.517,-2.380,4.761
-0.045,0.049,0.922,3.113,-2.747,5.798
-0.043,0.042,0.924,1.465,-3.601,5.920
-0.045,0.039,0.930,-0.427,-4.517,5.249
-0.050,0.040,0.933,-1.282,-5.127,4.150
-0.055,0.044,0.934,-0.977,-5.188,3.052
-0.062,0.051,0.931,-0.305,-4.761,1.892
-0.065,0.057,0.927,0.916,-4.150,0.916
-0.069,0.062,0.928,1.831,-3.357,0.183
-0.072,0.066,0.931,2.258,-2.502,0.061
-0.073,0.068,0.935,2.075,-2.319,-0.183
-0.076,0.065,0.936,1.343,-2.380,0.000
-0.077,0.065,0.940,0.000,-2.563,0.061

1.504,-0.280,1.389,78.918,374.817,118.835
1.508,-0.569,1.672,110.596,346.619,116.638
1.518,-0.821,1.936,120.667,324.402,108.459
1.529,-0.911,2.191,106.812,313.232,93.079
1.539,-0.828,2.390,76.843,307.556,75.928
1.540,-0.678,2.536,44.373,299.805,63.477
1.496,-0.588,2.680,20.630,286.194,59.143
1.417,-0.590,2.792,6.104,265.564,59.204
1.370,-0.625,2.872,-1.953,239.014,59.021
1.271,-0.727,2.949,-5.859,213.135,57.190
1.161,-0.849,3.026,-9.888,184.387,49.805
1.075,-0.910,3.077,-15.320,151.855,37.292
1.021,-0.882,3.070,-20.386,118.347,23.499
0.981,-0.818,3.022,-22.461,84.839,11.719
0.942,-0.760,2.958,-20.996,50.537,2.075
0.920,-0.726,2.875,-20.630,18.982,-4.395
0.904,-0.683,2.773,-24.048,-6.226,-7.629
0.908,-0.640,2.670,-29.846,-26.855,-8.850
0.917,-0.616,2.583,-34.424,-44.617,-8.789
0.933,-0.619,2.518,-36.255,-61.218,-9.033
0.945,-0.632,2.470,-36.072,-77.332,-10.559
0.951,-0.641,2.403,-34.790,-93.811,-13.489
0.954,-0.652,2.310,-31.128,-112.122,-17.090
0.960,-0.640,2.197,-26.184,-130.493,-27.344
0.970,-0.553,1.942,-15.930,-162.537,-32.593
0.977,-0.523,1.824,-11.841,-176.697,-36.499
0.982,-0.493,1.698,-9.521,-189.575,-39.063
0.990,-0.461,1.580,-8.362,-200.439,-41.504
0.979,-0.419,1.467,-7.996,-209.045,-43.823
0.964,-0.366,1.347,-9.338,-215.820,-45.593
0.934,-0.323,1.241,-10.681,-221.924,-46.875
0.891,-0.291,1.110,-11.658,-227.356,-47.913
0.853,-0.248,0.976,-10.986,-231.628,-50.415
0.812,-0.203,0.843,-7.568,-233.093,-52.429
0.768,-0.170,0.764,-2.991,-231.079,-53.894
0.715,-0.138,0.715,0.610,-227.539,-55.786
0.658,-0.108,0.684,0.916,-222.839,-57.129
0.602,-0.067,0.642,-1.892,-219.055,-57.251
0.550,0.001,0.576,-7.324,-215.271,-57.007
0.500,0.067,0.501,-11.841,-211.609,-55.054
0.452,0.103,0.435,-13.916,-208.130,-50.598
0.410,0.114,0.396,-13.794,-204.346,-45.593
0.357,0.142,0.361,-13.000,-199.585,-41.504
0.297,0.189,0.295,-12.085,-193.909,-34.058
0.178,0.190,0.172,-9.155,-181.274,-29.602
0.112,0.153,0.154,-9.705,-171.265,-26.245
0.060,0.150,0.139,-13.855,-158.875,-25.330
0.013,0.189,0.112,-19.470,-146.790,-25.330
-0.026,0.240,0.091,-22.766,-134.949,-23.987
-0.056,0.248,0.094,-23.071,-125.488,-20.081
-0.084,0.243,0.110,-22.400,-116.882,-14.221
-0.115,0.241,0.115,-22.217,-108.337,-8.240
-0.148,0.240,0.111,-21.667,-99.731,-3.296
-0.177,0.214,0.115,-19.836,-92.407,1.648
-0.219,0.171,0.138,-16.846,-85.327,6.226
-0.254,0.125,0.173,-15.808,-78.857,8.789
-0.283,0.101,0.196,-16.296,-73.792,8.545
-0.304,0.104,0.200,-16.785,-68.909,7.202
-0.322,0.101,0.202,-14.404,-64.636,6.348
-0.342,0.078,0.219,-9.521,-59.570,5.981
-0.366,0.057,0.234,-5.432,-52.917,5.310
-0.377,0.042,0.258,-3.296,-44.861,4.211
-0.383,0.066,0.290,-3.235,-35.278,5.005
-0.407,0.062,0.327,-4.333,-26.855,7.874
-0.420,0.042,0.355,-5.615,-20.691,8.972
-0.446,0.022,0.372,-7.263,-14.343,11.658
-0.463,-0.011,0.403,-7.263,-9.338,13.062
-0.483,-0.064,0.460,-6.653,-5.310,13.000
-0.500,-0.117,0.520,-6.470,-2.075,12.146
-0.513,-0.142,0.561,-7.446,-0.854,9.827
-0.526,-0.142,0.575,-8.606,0.854,4.944
-0.540,-0.120,0.590,-5.554,1.648,4.333
-0.548,-0.126,0.614,-2.808,3.113,4.272
-0.555,-0.135,0.645,-2.014,5.920,4.395
-0.549,-0.134,0.672,-4.211,10.315,3.784
-0.540,-0.124,0.709,-7.996,15.625,3.296
-0.531,-0.111,0.751,-11.536,20.447,3.723
-0.528,-0.104,0.784,-13.123,23.560,4.761
-0.529,-0.114,0.818,-12.756,24.475,6.470
-0.534,-0.133,0.841,-10.620,23.560,7.385
-0.536,-0.147,0.859,-8.057,22.034,7.324
-0.537,-0.149,0.873,-5.554,20.203,6.287
-0.534,-0.142,0.889,-2.991,18.555,4.883
-0.530,-0.145,0.912,-0.610,17.334,3.906
-0.528,-0.148,0.937,0.671,16.479,3.113
-0.525,-0.142,0.948,0.427,15.381,2.319
-0.521,-0.130,0.946,-0.488,14.832,1.587
-0.521,-0.126,0.947,-0.366,14.282,1.465
-0.523,-0.130,0.957,0.305,13.550,1.831
-0.525,-0.131,0.964,1.282,12.695,2.075
-0.525,-0.123,0.961,1.953,11.536,1.587
-0.525,-0.114,0.951,2.991,9.644,1.099
-0.525,-0.111,0.941,4.761,7.568,0.671
-0.523,-0.113,0.937,5.981,5.859,0.061
-0.518,-0.108,0.934,6.042,4.700,-0.793
-0.510,-0.094,0.923,5.310,3.906,-1.526
-0.499,-0.084,0.923,4.333,3.601,-1.953
-0.491,-0.075,0.931,3.052,3.662,-1.953
-0.486,-0.063,0.931,1.526,3.723,-1.587
-0.483,-0.057,0.922,0.610,3.113,-1.160
-0.482,-0.057,0.911,0.916,1.953,-0.854
-0.482,-0.055,0.896,1.892,0.732,-0.488
-0.482,-0.058,0.887,3.174,-0.366,-0.427
-0.485,-0.062,0.880,4.089,-1.099,-0.244
-0.483,-0.062,0.872,4.700,-1.648,-0.305
-0.482,-0.066,0.864,5.676,-2.319,-0.488
-0.485,-0.075,0.853,6.287,-3.296,-0.549
-0.485,-0.079,0.851,5.310,-2.869,-0.305
-0.484,-0.082,0.849,3.296,-2.319,-0.366
-0.482,-0.079,0.848,1.038,-1.587,-0.305
-0.477,-0.075,0.845,-0.427,-1.038,-0.183
-0.477,-0.075,0.844,-0.305,-0.854,0.061
-0.478,-0.078,0.844,0.671,-1.160,0.305
-0.476,-0.081,0.843,1.465,-1.831,-0.061
-0.474,-0.077,0.835,1.648,-2.258,-0.549
-0.473,-0.072,0.831,2.258,-2.258,-0.977
-0.473,-0.069,0.826,3.174,-2.747,-1.038
-0.483,-0.064,0.820,4.395,-2.441,-0.549
-0.489,-0.067,0.821,3.418,-1.892,-0.061
-0.408,0.131,2.274,32.837,28.809,40.527
-0.367,0.107,2.431,38.269,18.738,47.241
-0.325,0.050,2.533,39.978,2.686,51.697
-0.263,-0.007,2.597,38.452,-19.287,52.856
-0.199,-0.065,2.607,36.072,-45.166,50.354
-0.139,-0.125,2.562,34.851,-71.594,44.861
-0.084,-0.182,2.445,36.072,-97.046,36.560
-0.023,-0.225,2.280,38.879,-120.667,26.001
0.035,-0.250,2.094,41.809,-141.235,14.648
0.091,-0.257,1.927,43.640,-158.325,3.784
0.149,-0.240,1.799,45.349,-169.739,-5.798
0.192,-0.212,1.696,47.058,-175.720,-15.137
0.216,-0.164,1.577,48.401,-179.565,-24.048
0.248,-0.088,1.477,46.265,-185.181,-31.189
0.276,-0.020,1.380,40.100,-191.772,-35.339
0.300,0.013,1.256,31.616,-199.097,-36.621
0.329,0.027,1.099,21.423,-208.313,-36.621
0.356,0.052,0.936,9.949,-218.262,-36.682
0.370,0.079,0.742,-1.160,-225.342,-37.354
0.376,0.109,0.555,-12.817,-230.042,-37.903
0.375,0.141,0.382,-24.963,-233.215,-37.231
0.381,0.167,0.206,-36.133,-234.741,-34.912
0.385,0.162,0.003,-45.044,-235.840,-30.579
0.395,0.151,-0.232,-52.429,-236.877,-25.208
0.425,0.102,-0.525,-58.411,-236.694,-19.592
0.427,0.042,-0.835,-63.538,-229.431,-16.846
0.428,-0.009,-1.142,-67.627,-221.985,-13.245
0.431,-0.046,-1.416,-71.594,-210.388,-8.667
0.429,-0.087,-1.628,-74.463,-189.148,-4.395
0.426,-0.135,-1.777,-74.951,-157.776,-1.587
0.407,-0.190,-1.857,-71.472,-117.432,1.221
0.378,-0.254,-1.848,-63.782,-69.824,2.869
0.343,-0.319,-1.758,-51.208,-19.287,2.380
0.317,-0.363,-1.625,-33.508,30.212,-1.282
0.285,-0.368,-1.465,-14.038,78.613,-9.033
0.247,-0.312,-1.254,2.319,123.230,-19.836
0.192,-0.211,-0.999,14.282,161.072,-29.663
0.127,-0.065,-0.695,24.658,193.359,-34.973
0.045,0.074,-0.399,36.987,220.886,-35.278
0.001,0.188,-0.123,49.011,240.784,-28.564
-0.006,0.265,0.138,56.824,251.221,-15.991
-0.002,0.276,0.375,59.631,256.226,-1.465
0.013,0.224,0.587,57.434,257.446,11.841
0.029,0.145,0.784,52.490,254.150,20.447
0.064,0.072,0.965,46.387,248.169,23.010
0.097,0.019,1.152,36.987,240.784,19.958
0.122,-0.006,1.339,23.865,231.873,13.000
0.125,-0.005,1.525,9.766,222.290,4.639
0.123,0.027,1.723,-1.770,211.670,-1.953
0.111,0.043,1.894,-9.644,199.219,-4.700
0.079,0.024,2.009,-14.099,186.829,-5.615
0.043,-0.003,2.060,-16.113,174.561,-6.531
0.014,-0.031,2.061,-15.442,162.598,-8.179
-0.022,-0.050,2.023,-13.062,151.917,-10.986
-0.048,-0.032,1.989,-10.559,142.212,-15.198
-0.080,0.010,1.965,-6.592,134.644,-19.714
-0.146,0.029,1.953,0.854,124.634,-21.301
-0.151,0.042,1.844,8.911,115.662,-22.705
-0.159,0.076,1.704,14.099,121.582,-25.024
-0.171,0.134,1.609,16.663,119.873,-23.132
-0.168,0.181,1.611,16.296,107.605,-15.320
-0.169,0.201,1.719,15.137,85.815,-4.639
-0.135,0.176,1.778,13.245,65.979,5.859
-0.122,0.097,1.836,10.010,54.382,13.428
-0.140,0.052,1.813,4.333,38.330,16.479
-0.092,-0.011,1.755,-3.113,33.508,15.930
-0.138,-0.010,1.720,-10.986,26.123,10.132
-0.080,0.030,1.588,-18.311,18.616,8.667
-0.080,-0.065,1.679,-21.851,4.333,5.371
-0.097,-0.045,1.582,-24.475,-16.418,-2.319
-0.072,-0.030,1.444,-24.597,-4.578,-5.493
-0.077,0.018,1.340,-19.531,-6.165,-8.057
-0.093,0.050,1.290,-12.878,-7.751,-7.507
-0.094,0.050,1.253,-3.845,-3.723,-6.470
-0.078,0.041,1.242,1.282,-5.066,-3.967
-0.070,0.021,1.233,2.441,-7.935,-3.235
-0.071,0.015,1.213,0.000,-11.230,-3.540
-0.064,0.021,1.189,-4.822,-16.846,-4.211
-0.062,0.029,1.162,-10.681,-22.644,-5.676
-0.065,0.039,1.135,-16.663,-27.344,-7.080
-0.071,0.046,1.104,-20.630,-30.762,-7.568
-0.077,0.055,1.072,-21.790,-31.799,-7.324
-0.083,0.063,1.035,-20.264,-30.701,-6.470
-0.083,0.072,1.004,-16.602,-28.381,-5.188
-0.082,0.083,0.984,-12.085,-25.330,-3.418
-0.076,0.088,0.966,-7.751,-21.667,-1.160
-0.071,0.083,0.951,-3.601,-18.066,1.709
-0.056,0.073,0.943,-0.427,-14.832,4.211
-0.038,0.053,0.935,1.709,-12.634,6.042
-0.022,0.030,0.927,2.808,-11.169,6.958
-0.014,0.015,0.929,2.197,-10.864,6.653
-0.012,0.007,0.935,0.610,-11.658,5.920
-0.010,0.001,0.939,-0.793,-12.939,5.066
-0.011,-0.004,0.938,-1.587,-14.099,4.333
-0.015,-0.013,0.936,-2.014,-14.771,3.723
-0.022,-0.021,0.931,-2.136,-15.076,3.113
-0.029,-0.022,0.926,-2.502,-15.198,1.953
-0.034,-0.014,0.923,-2.747,-15.381,0.305
-0.041,-0.001,0.925,-2.747,-14.709,-1.038
-0.050,0.008,0.926,-2.808,-13.550,-1.709
-0.057,0.015,0.926,-2.380,-12.329,-1.770
-0.060,0.020,0.927,-1.526,-10.620,-1.648
-0.066,0.029,0.928,-0.305,-9.460,-1.587
-0.073,0.038,0.925,1.099,-8.423,-1.282
-0.077,0.044,0.926,2.014,-7.324,-0.549
-0.078,0.046,0.930,2.808,-6.409,0.671
-0.078,0.041,0.931,3.601,-5.432,1.892
-0.076,0.033,0.930,3.540,-5.371,2.869
-0.076,0.028,0.930,2.747,-5.493,3.357
-0.076,0.020,0.926,1.831,-5.798,3.479
-0.075,0.016,0.925,0.854,-6.042,3.174
-0.078,0.015,0.923,0.061,-6.348,2.319
-0.080,0.017,0.920,-0.488,-6.226,1.404
-0.085,0.023,0.918,-0.305,-5.676,0.671
-0.088,0.027,0.918,0.488,-4.639,0.305
-0.089,0.027,0.923,1.282,-3.113,0.183
-0.088,0.029,0.932,1.892,-1.831,0.122
-0.087,0.034,0.944,1.953,-1.038,0.061
-0.083,0.037,0.956,1.648,-0.610,0.061

1.397,-0.384,1.449,43.213,351.807,96.741
1.415,-0.585,1.679,72.510,319.092,83.801
1.400,-0.786,1.908,106.384,284.424,69.031
1.376,-0.908,2.124,129.150,254.211,53.406
1.346,-0.915,2.328,132.874,231.750,37.048
1.298,-0.819,2.482,116.516,218.079,25.085
1.229,-0.722,2.598,86.487,209.412,20.325
1.179,-0.648,2.691,51.514,200.256,22.949
1.085,-0.678,2.779,18.738,190.552,31.067
1.000,-0.758,2.872,-9.216,175.476,35.034
0.936,-0.809,2.925,-31.433,151.733,32.593
0.884,-0.798,2.911,-43.030,124.329,26.428
0.833,-0.770,2.865,-42.603,94.055,19.226
0.790,-0.744,2.807,-34.485,61.340,11.108
0.755,-0.707,2.725,-25.574,30.640,2.808
0.725,-0.659,2.625,-19.653,5.676,-3.418
0.705,-0.626,2.521,-19.470,-13.855,-6.775
0.687,-0.610,2.427,-24.414,-28.931,-7.996
0.674,-0.593,2.342,-31.189,-40.039,-8.484
0.672,-0.576,2.264,-38.025,-49.561,-9.094
0.677,-0.571,2.209,-42.603,-58.594,-9.033
0.677,-0.572,2.167,-43.640,-69.031,-9.399
0.676,-0.576,2.119,-41.504,-81.299,-10.193
0.681,-0.581,2.052,-36.865,-95.337,-11.658
0.679,-0.579,1.983,-29.480,-109.802,-14.709
0.678,-0.574,1.914,-21.118,-123.596,-19.531
0.688,-0.561,1.851,-14.343,-136.780,-25.085
0.690,-0.530,1.762,-10.010,-164.246,-35.706
0.726,-0.424,1.556,-8.545,-167.480,-39.856
0.742,-0.375,1.478,-10.010,-172.729,-42.969
0.742,-0.334,1.400,-13.550,-176.575,-45.105
0.738,-0.293,1.315,-18.433,-179.687,-46.265
0.730,-0.252,1.228,-23.071,-182.007,-46.387
0.713,-0.223,1.156,-26.428,-183.594,-45.654
0.693,-0.208,1.095,-28.809,-185.974,-44.495
0.670,-0.197,1.031,-30.334,-188.599,-43.335
0.638,-0.177,0.955,-31.433,-190.674,-42.786
0.596,-0.138,0.865,-30.762,-192.261,-43.030
0.552,-0.097,0.775,-27.649,-193.665,-43.213
0.503,-0.066,0.699,-21.851,-194.763,-42.847
0.455,-0.049,0.628,-15.137,-195.984,-42.236
0.408,-0.020,0.543,-9.827,-196.228,-42.175
0.360,0.029,0.452,-6.958,-193.481,-42.664
0.319,0.087,0.372,-6.042,-187.378,-42.908
0.278,0.135,0.320,-6.287,-179.077,-41.626
0.237,0.184,0.279,-8.850,-169.434,-38.940
0.200,0.231,0.236,-13.672,-159.485,-34.912
0.169,0.257,0.217,-18.372,-149.231,-29.480
0.120,0.258,0.219,-22.339,-139.587,-22.766
0.083,0.263,0.210,-26.062,-130.859,-16.846
0.044,0.273,0.182,-28.564,-124.146,-12.024
0.006,0.272,0.153,-28.076,-117.493,-7.690
-0.028,0.256,0.155,-24.536,-111.145,-3.540
-0.075,0.226,0.181,-19.104,-104.858,-0.610
-0.114,0.206,0.203,-14.587,-99.060,1.770
-0.147,0.203,0.214,-11.414,-94.116,3.235
-0.173,0.190,0.243,-8.667,-89.172,4.456
-0.201,0.168,0.274,-6.897,-85.022,5.920
-0.226,0.166,0.284,-7.996,-80.139,6.653
-0.248,0.169,0.295,-9.583,-74.219,7.202
-0.276,0.162,0.314,-10.498,-68.604,8.423
-0.250,0.142,0.231,-10.254,-61.951,10.010
-0.316,0.185,0.300,-10.376,-54.810,13.428
-0.388,0.109,0.339,-8.911,-49.622,17.029
-0.387,0.051,0.360,-7.690,-47.852,14.587
-0.423,0.036,0.347,-8.179,-38.940,16.785
-0.450,0.024,0.352,-9.216,-29.602,17.700
-0.469,-0.011,0.386,-8.545,-25.330,14.587
-0.485,-0.027,0.415,-8.423,-20.081,12.512
-0.498,-0.020,0.434,-7.507,-15.381,10.986
-0.506,-0.003,0.455,-5.554,-12.024,10.864
-0.530,-0.019,0.518,-0.977,-6.592,12.573
-0.536,-0.047,0.559,-1.221,-3.418,14.160
-0.542,-0.076,0.609,-4.211,-0.610,15.442
-0.550,-0.097,0.646,-8.423,2.075,16.357
-0.552,-0.119,0.671,-12.390,3.845,16.541
-0.561,-0.144,0.693,-13.611,5.066,16.724
-0.572,-0.164,0.711,-12.390,5.859,15.991
-0.581,-0.176,0.724,-8.484,6.104,14.282
-0.588,-0.183,0.741,-3.601,5.981,11.902
-0.590,-0.180,0.757,1.221,6.348,9.521
-0.586,-0.174,0.777,4.150,6.592,7.568
-0.578,-0.167,0.798,5.249,7.263,5.615
-0.566,-0.157,0.818,4.456,8.789,4.272
-0.551,-0.143,0.837,1.892,10.742,3.540
-0.541,-0.134,0.852,-1.404,12.634,3.479
-0.534,-0.139,0.867,-3.357,13.550,3.906
-0.530,-0.139,0.887,-4.028,13.855,3.967
-0.526,-0.129,0.903,-3.235,13.123,2.930
-0.522,-0.113,0.910,-1.099,11.475,1.709
-0.523,-0.097,0.910,1.831,9.460,0.793
-0.528,-0.091,0.909,4.761,7.446,0.244
-0.529,-0.089,0.903,6.348,5.920,-0.061
-0.527,-0.090,0.902,6.104,5.371,-0.244
-0.520,-0.091,0.902,5.005,5.005,-0.732
-0.515,-0.089,0.906,3.662,5.066,-0.977
-0.507,-0.080,0.908,2.136,5.432,-1.160
-0.503,-0.069,0.913,0.854,5.676,-1.221
-0.500,-0.065,0.914,0.183,5.432,-0.977
-0.496,-0.060,0.907,-0.061,4.517,-0.732
-0.493,-0.052,0.902,0.183,3.479,-0.671
-0.493,-0.045,0.896,1.221,2.441,-0.854
-0.493,-0.039,0.890,2.502,1.221,-0.732
-0.494,-0.037,0.879,3.357,0.183,-0.427
-0.497,-0.044,0.867,3.540,-0.366,0.183
-0.498,-0.056,0.857,3.540,-0.793,0.366
-0.497,-0.064,0.849,3.479,-1.099,0.183
-0.491,-0.073,0.851,2.930,-0.977,-0.183
-0.487,-0.075,0.858,1.587,-0.244,-0.488
-0.482,-0.067,0.863,-0.183,0.427,-0.671
-0.478,-0.057,0.863,-1.038,0.671,-0.793
-0.478,-0.054,0.865,-0.977,0.427,-0.122
-0.482,-0.057,0.861,-0.183,-0.305,0.488
-0.488,-0.059,0.853,1.099,-1.160,0.671
-0.490,-0.055,0.845,2.502,-1.770,0.427
-0.494,-0.050,0.835,3.418,-2.136,0.244
-0.500,-0.055,0.835,5.432,-3.479,0.427
-0.507,-0.077,0.834,5.005,-3.662,-0.061
-0.507,-0.075,0.835,3.662,-3.052,-0.732
-0.445,0.174,2.302,0.366,4.761,17.456
-0.440,0.174,2.438,12.085,-10.071,22.949
-0.411,0.126,2.476,26.062,-26.855,28.931
-0.366,0.052,2.430,38.757,-43.945,32.654
-0.315,-0.014,2.353,48.157,-60.181,33.142
-0.262,-0.068,2.273,53.589,-75.745,30.518
-0.215,-0.104,2.196,56.396,-90.088,25.757
-0.157,-0.133,2.113,58.228,-103.271,20.691
-0.092,-0.168,2.020,59.692,-115.051,15.503
-0.032,-0.204,1.910,59.021,-125.732,9.705
0.007,-0.232,1.808,54.688,-135.681,3.113
0.041,-0.231,1.734,47.974,-145.020,-3.662
0.071,-0.214,1.669,42.847,-153.442,-9.827
0.099,-0.185,1.582,40.466,-160.645,-16.052
0.128,-0.152,1.465,39.978,-167.419,-22.217
0.152,-0.120,1.312,38.635,-174.927,-28.015
0.162,-0.071,1.157,33.997,-183.289,-33.447
0.178,-0.026,0.994,26.978,-191.650,-38.208
0.189,0.016,0.815,18.494,-198.730,-41.382
0.191,0.052,0.624,8.118,-204.224,-43.274
0.180,0.091,0.447,-4.272,-208.130,-43.884
0.167,0.140,0.285,-17.456,-209.473,-42.786
0.151,0.189,0.152,-30.090,-208.069,-39.124
0.152,0.216,0.033,-40.222,-203.979,-33.020
0.143,0.219,-0.077,-47.302,-199.097,-25.330
0.159,0.203,-0.229,-51.453,-195.801,-16.418
0.168,0.148,-0.414,-52.490,-186.462,-10.681
0.163,0.101,-0.599,-53.284,-176.086,-6.104
0.154,0.065,-0.754,-54.443,-166.016,-2.014
0.148,0.026,-0.881,-54.260,-152.771,1.526
0.152,-0.020,-0.984,-51.514,-134.583,3.967
0.168,-0.073,-1.062,-47.424,-111.755,5.737
0.184,-0.125,-1.109,-43.884,-86.731,5.981
0.185,-0.163,-1.116,-40.771,-60.913,4.395
0.168,-0.195,-1.094,-36.438,-34.851,1.648
0.133,-0.218,-1.056,-30.701,-8.545,-1.831
0.092,-0.224,-0.997,-24.292,17.761,-5.676
0.045,-0.213,-0.908,-19.104,44.312,-10.803
0.002,-0.180,-0.784,-15.198,69.519,-16.052
-0.034,-0.125,-0.623,-9.949,92.773,-19.470
-0.058,-0.065,-0.445,0.000,114.746,-19.775
-0.067,-0.006,-0.256,14.954,135.498,-16.235
-0.069,0.023,-0.074,31.311,154.419,-9.949
-0.062,0.022,0.088,43.884,168.762,-2.930
-0.062,0.001,0.245,49.805,178.040,2.625
-0.062,-0.018,0.386,50.476,183.167,5.371
-0.058,-0.032,0.512,46.997,185.364,4.517
-0.056,-0.022,0.637,40.710,185.364,0.244
-0.057,0.020,0.779,32.654,184.387,-4.089
-0.068,0.078,0.934,26.123,185.974,-7.324
-0.070,0.122,1.085,22.034,189.209,-7.874
-0.069,0.141,1.197,18.127,192.444,-4.883
-0.083,0.102,1.326,11.963,192.993,-0.671
-0.085,0.073,1.418,3.174,190.063,1.953
-0.093,0.028,1.498,-8.850,185.547,5.432
-0.093,0.002,1.595,-22.461,172.913,4.395
-0.112,-0.001,1.700,-32.593,160.889,0.000
-0.122,0.009,1.770,-32.959,153.625,-3.845
-0.187,0.008,1.865,-24.109,144.470,-7.324
-0.228,0.059,1.857,-11.353,133.911,-10.010
-0.265,0.105,1.823,3.052,139.160,-11.169
-0.308,0.142,1.803,17.212,134.766,-9.766
-0.329,0.147,1.797,24.963,123.901,-4.395
-0.321,0.110,1.794,24.048,110.657,1.770
-0.318,0.067,1.795,14.343,93.811,5.493
-0.306,0.034,1.794,-0.610,75.928,6.836
-0.296,0.018,1.741,-16.968,59.631,5.493
-0.289,0.033,1.730,-32.349,50.781,2.747
-0.261,0.042,1.699,-42.603,18.921,3.357
-0.270,0.012,1.634,-48.340,9.399,0.305
-0.240,-0.005,1.474,-42.664,21.667,-8.911
-0.266,0.058,1.434,-33.264,30.090,-13.306
-0.261,0.106,1.424,-16.846,39.246,-11.658
-0.269,0.119,1.409,-0.183,47.119,-7.690
-0.249,0.113,1.382,9.949,50.903,-1.892
-0.228,0.097,1.360,11.963,49.561,3.845
-0.196,0.076,1.331,7.019,43.152,8.850
-0.167,0.062,1.317,-2.319,33.447,12.146
-0.145,0.053,1.324,-12.390,23.193,13.428
-0.133,0.032,1.320,-19.470,14.465,14.160
-0.126,-0.001,1.287,-21.667,7.812,14.160
-0.124,-0.032,1.234,-18.860,3.479,12.329
-0.119,-0.036,1.189,-13.855,1.648,8.606
-0.118,-0.019,1.162,-8.667,1.160,4.150
-0.121,0.003,1.144,-4.456,1.343,0.488
-0.125,0.020,1.122,-2.380,0.305,-1.892
-0.111,0.039,1.108,-2.380,-1.953,-3.113
-0.109,0.054,1.092,-3.723,-7.141,-3.784
-0.104,0.075,1.062,-6.714,-9.827,-2.930
-0.093,0.075,1.029,-8.423,-14.221,-1.953
-0.096,0.081,1.005,-9.460,-15.625,-1.038
-0.083,0.080,0.989,-8.545,-13.489,0.366
-0.082,0.078,0.984,-5.981,-13.245,2.075
-0.070,0.064,0.982,-2.380,-11.475,4.089
-0.059,0.046,0.982,0.916,-9.949,5.371
-0.048,0.028,0.982,2.563,-9.277,5.615
-0.042,0.014,0.978,2.686,-9.277,4.578
-0.038,0.008,0.974,0.916,-10.681,2.869
-0.037,0.010,0.969,-2.014,-12.878,1.160
-0.038,0.014,0.961,-5.127,-14.832,-0.244
-0.041,0.019,0.952,-7.507,-15.747,-1.038
-0.048,0.027,0.945,-8.728,-16.235,-1.587
-0.056,0.032,0.939,-8.179,-15.198,-1.465
-0.061,0.038,0.934,-6.226,-13.367,-1.160
-0.065,0.039,0.933,-3.357,-10.864,-0.305
-0.065,0.036,0.933,-0.549,-8.728,0.549
-0.068,0.029,0.933,1.465,-7.263,1.343
-0.069,0.023,0.930,2.075,-6.409,1.404
-0.072,0.022,0.931,1.465,-6.470,1.160
-0.075,0.025,0.928,0.000,-7.019,0.610
-0.081,0.031,0.930,-1.465,-7.690,0.244
-0.087,0.037,0.930,-2.441,-8.118,0.000
-0.092,0.040,0.927,-3.113,-8.240,0.122
-0.095,0.044,0.922,-3.113,-7.935,0.366
-0.102,0.048,0.925,-2.625,-7.019,0.610
-0.103,0.053,0.926,-1.221,-5.676,1.221
-0.102,0.053,0.928,0.610,-4.272,2.014
-0.099,0.049,0.930,1.953,-2.991,2.747
-0.094,0.046,0.936,2.563,-2.136,3.174

1.356,-0.472,1.519,88.928,334.045,113.953
1.343,-0.722,1.719,111.816,307.312,112.122
1.345,-0.907,1.874,128.235,282.288,101.990
1.354,-0.981,2.000,133.972,264.160,85.754
1.366,-0.946,2.124,127.197,253.967,69.824
1.349,-0.908,2.262,110.535,248.230,57.922
1.320,-0.877,2.453,85.449,241.760,51.941
1.252,-0.860,2.585,54.810,233.948,53.040
1.178,-0.883,2.716,24.048,223.267,53.284
1.100,-0.951,2.844,-2.258,203.491,50.659
1.022,-1.003,2.936,-23.926,177.246,45.593
0.960,-1.013,2.964,-39.368,146.667,36.926
0.928,-1.007,2.964,-45.288,111.755,25.085
0.909,-0.990,2.937,-43.274,76.416,13.184
0.894,-0.955,2.902,-37.720,44.495,2.930
0.872,-0.905,2.831,-32.898,16.174,-3.906
0.861,-0.849,2.751,-31.677,-7.019,-8.850
0.857,-0.805,2.669,-35.278,-26.062,-12.085
0.856,-0.764,2.588,-42.603,-41.565,-13.794
0.863,-0.734,2.518,-50.598,-55.969,-14.404
0.871,-0.725,2.462,-57.190,-70.374,-14.099
0.871,-0.730,2.391,-61.279,-85.999,-13.367
0.869,-0.748,2.303,-62.927,-103.088,-13.245
0.862,-0.765,2.180,-62.317,-120.789,-14.587
0.866,-0.755,2.037,-59.204,-137.024,-18.982
0.885,-0.726,1.907,-53.528,-152.344,-25.513
0.900,-0.672,1.786,-46.326,-181.091,-38.879
0.916,-0.555,1.550,-27.832,-188.904,-43.762
0.918,-0.522,1.442,-19.470,-199.768,-47.974
0.905,-0.476,1.304,-13.306,-208.130,-51.819
0.886,-0.431,1.181,-8.667,-213.318,-55.176
0.855,-0.393,1.079,-6.104,-216.858,-58.533
0.811,-0.337,0.983,-5.859,-218.018,-62.012
0.778,-0.272,0.896,-8.057,-216.980,-65.491
0.742,-0.203,0.823,-11.536,-215.088,-67.810
0.708,-0.112,0.745,-15.381,-212.219,-68.726
0.672,-0.019,0.675,-18.555,-209.229,-68.054
0.631,0.051,0.605,-21.057,-205.505,-64.575
0.590,0.081,0.551,-23.437,-201.294,-58.594
0.533,0.102,0.499,-25.269,-196.350,-52.246
0.479,0.121,0.447,-26.917,-191.040,-47.424
0.417,0.126,0.408,-27.649,-185.730,-43.823
0.356,0.139,0.365,-27.771,-175.415,-39.917
0.229,0.178,0.365,-26.062,-170.837,-38.513
0.253,0.192,0.288,-22.095,-168.640,-36.621
0.184,0.214,0.275,-15.076,-160.034,-34.668
0.140,0.235,0.255,-9.460,-156.372,-30.884
0.094,0.241,0.256,-4.272,-154.480,-27.893
0.050,0.254,0.234,-4.028,-147.949,-23.499
-0.001,0.262,0.204,-7.996,-139.160,-19.348
-0.049,0.269,0.194,-15.442,-130.432,-15.564
-0.095,0.262,0.174,-23.071,-121.704,-11.902
-0.134,0.259,0.145,-28.320,-113.281,-8.667
-0.174,0.266,0.107,-28.992,-106.384,-5.676
-0.208,0.278,0.074,-24.536,-100.647,-2.930
-0.239,0.260,0.055,-16.296,-95.947,1.343
-0.276,0.207,0.066,-6.775,-91.003,6.104
-0.330,0.149,0.112,0.366,-84.045,9.460
-0.339,0.069,0.179,3.601,-73.364,11.719
-0.379,0.102,0.178,1.221,-64.514,13.367
-0.441,0.024,0.265,-1.953,-56.702,12.756
-0.428,-0.001,0.286,-6.470,-53.406,7.629
-0.449,0.025,0.259,-9.644,-40.833,9.705
-0.472,0.025,0.277,-10.132,-28.931,12.451
-0.486,-0.013,0.336,-8.362,-23.743,11.963
-0.494,-0.043,0.387,-8.057,-17.822,11.841
-0.508,-0.055,0.426,-8.423,-11.963,12.329
-0.524,-0.072,0.472,-7.629,-8.728,12.512
-0.540,-0.102,0.510,-6.348,-7.385,12.390
-0.556,-0.131,0.533,-5.371,-5.920,12.207
-0.563,-0.153,0.555,-4.333,-3.662,11.414
-0.569,-0.172,0.601,-3.784,-1.343,10.376
-0.574,-0.181,0.660,-4.639,1.099,6.592
-0.562,-0.143,0.717,-9.216,4.089,4.761
-0.555,-0.130,0.738,-8.911,4.211,4.456
-0.552,-0.136,0.767,-6.958,4.028,5.005
-0.552,-0.142,0.786,-4.883,3.540,5.676
-0.551,-0.142,0.799,-2.991,3.296,5.432
-0.552,-0.137,0.807,-1.770,3.479,5.066
-0.555,-0.136,0.820,-1.160,4.761,4.822
-0.556,-0.132,0.839,-1.709,6.836,4.883
-0.556,-0.119,0.853,-3.174,8.423,4.639
-0.553,-0.106,0.862,-4.028,9.155,4.456
-0.551,-0.103,0.867,-3.967,8.972,4.456
-0.549,-0.101,0.865,-3.479,8.179,4.700
-0.545,-0.101,0.865,-1.953,7.080,4.761
-0.545,-0.107,0.877,-0.549,6.348,4.822
-0.548,-0.115,0.886,0.854,5.615,5.188
-0.553,-0.117,0.884,1.770,4.517,4.883
-0.558,-0.115,0.872,2.563,3.174,4.028
-0.560,-0.115,0.865,3.052,2.258,3.296
-0.562,-0.113,0.862,3.052,2.197,2.502
-0.558,-0.109,0.859,2.502,2.502,1.770
-0.549,-0.102,0.870,1.587,2.869,1.221
-0.542,-0.103,0.872,0.916,2.258,1.038
-0.538,-0.098,0.867,-0.122,1.587,0.671
-0.534,-0.090,0.862,-0.610,1.160,0.366
-0.531,-0.085,0.860,-0.183,0.610,0.305
-0.532,-0.080,0.854,0.244,0.000,0.427
-0.531,-0.073,0.844,0.549,-0.488,0.671
-0.533,-0.072,0.832,1.343,-0.854,0.854
-0.535,-0.074,0.824,1.465,-1.221,0.977
-0.535,-0.073,0.815,1.465,-1.221,0.793
-0.534,-0.070,0.809,0.916,-1.099,0.427
-0.532,-0.071,0.808,0.977,-0.854,0.183
-0.533,-0.080,0.818,0.854,-0.854,0.122
-0.528,-0.082,0.817,0.793,-0.793,-0.183
-0.526,-0.079,0.811,0.488,-0.793,-0.183
-0.526,-0.079,0.807,0.977,-0.916,0.061
-0.529,-0.083,0.806,1.587,-1.099,0.427
-0.530,-0.087,0.803,1.587,-1.221,0.671
-0.534,-0.084,0.801,1.099,-0.671,0.793
-0.531,-0.076,0.799,0.488,-0.244,0.549
-0.531,-0.075,0.805,0.061,-0.183,0.366
-0.528,-0.075,0.811,-0.305,-0.244,-0.061
-0.523,-0.068,0.810,-0.122,-0.427,-0.977
-0.524,-0.065,0.817,0.610,-0.854,-1.099
-0.526,-0.065,0.813,1.282,-1.038,-1.099
-0.528,-0.061,0.807,0.977,-0.854,-1.038
-0.379,0.141,2.296,34.607,-20.020,25.635
-0.358,0.109,2.342,38.696,-37.598,30.334
-0.326,0.059,2.344,36.255,-59.875,33.447
-0.299,0.003,2.323,30.273,-82.703,34.729
-0.279,-0.042,2.287,24.902,-103.455,33.813
-0.256,-0.072,2.234,23.560,-121.338,31.372
-0.224,-0.108,2.145,26.733,-135.742,27.405
-0.191,-0.145,2.035,31.616,-147.827,21.973
-0.150,-0.162,1.923,36.011,-158.997,14.282
-0.103,-0.155,1.812,39.612,-169.006,5.066
-0.073,-0.130,1.706,42.114,-178.406,-4.395
-0.040,-0.089,1.586,43.518,-188.782,-13.428
-0.010,-0.037,1.458,42.969,-198.975,-21.057
0.009,-0.000,1.297,40.527,-208.740,-26.611
0.024,0.034,1.120,34.790,-218.323,-29.968
0.042,0.079,0.954,26.123,-227.051,-31.616
0.051,0.114,0.801,16.479,-233.032,-31.494
0.067,0.131,0.660,7.263,-236.145,-29.541
0.082,0.120,0.515,-0.244,-236.694,-26.489
0.108,0.111,0.377,-6.042,-236.084,-23.865
0.135,0.102,0.244,-9.644,-233.398,-22.949
0.193,0.100,0.103,-10.376,-228.149,-22.095
0.242,0.098,-0.053,-8.057,-222.961,-21.606
0.320,0.082,-0.292,-4.272,-218.994,-21.118
0.388,0.053,-0.590,-2.380,-209.534,-23.010
0.444,0.024,-0.926,-5.798,-201.660,-24.109
0.456,-0.006,-1.248,-17.151,-194.763,-22.888
0.476,-0.053,-1.512,-35.400,-180.298,-19.653
0.501,-0.099,-1.674,-56.396,-156.982,-15.137
0.543,-0.148,-1.739,-72.266,-125.610,-10.437
0.583,-0.215,-1.732,-78.308,-86.792,-6.470
0.607,-0.301,-1.675,-75.134,-44.617,-4.456
0.603,-0.377,-1.577,-66.345,-2.075,-7.385
0.577,-0.425,-1.455,-53.833,40.771,-17.029
0.537,-0.419,-1.322,-41.260,82.336,-33.020
0.466,-0.358,-1.170,-29.602,121.643,-52.307
0.374,-0.218,-0.956,-18.127,157.959,-70.007
0.269,-0.011,-0.643,-3.357,192.810,-81.482
0.141,0.202,-0.306,17.334,225.891,-84.106
0.034,0.362,0.002,41.382,252.563,-74.585
-0.020,0.449,0.272,63.354,272.400,-54.565
-0.033,0.464,0.547,77.026,286.011,-30.273
-0.014,0.394,0.820,80.750,292.603,-7.507
0.012,0.280,1.075,72.021,289.734,8.484
0.024,0.172,1.301,52.979,275.146,15.747
0.037,0.068,1.483,30.884,255.310,16.541
0.034,-0.002,1.632,7.690,237.244,9.766
0.017,-0.018,1.770,-14.404,220.459,-1.892
-0.005,0.022,1.947,-29.419,206.543,-13.794
-0.074,0.074,2.119,-31.372,197.876,-24.109
-0.155,0.098,2.193,-20.813,192.749,-30.518
-0.220,0.120,2.197,-6.470,185.791,-33.813
-0.279,0.163,2.186,4.761,176.025,-35.583
-0.302,0.197,2.139,15.198,166.138,-34.363
-0.301,0.195,2.013,24.292,157.593,-30.396
-0.322,0.161,1.905,27.649,141.479,-24.170
-0.301,0.170,1.734,23.926,127.014,-20.081
-0.293,0.179,1.590,18.677,129.883,-18.311
-0.306,0.220,1.542,14.404,118.835,-15.137
-0.302,0.242,1.555,10.925,100.464,-7.996
-0.287,0.233,1.525,8.850,81.482,-0.916
-0.282,0.215,1.492,3.479,66.040,4.333
-0.305,0.209,1.457,-2.441,61.096,7.507
-0.286,0.243,1.486,-5.615,69.824,11.841
-0.272,0.212,1.536,-5.859,52.795,21.484
-0.284,0.155,1.570,-8.118,46.448,25.330
-0.229,0.070,1.476,-8.118,61.218,22.400
-0.213,0.066,1.454,-13.245,64.148,19.958
-0.181,0.073,1.445,-18.738,56.030,19.348
-0.171,0.078,1.440,-23.621,46.631,17.456
-0.149,0.083,1.431,-27.039,38.086,16.174
-0.136,0.098,1.432,-27.954,29.114,16.174
-0.122,0.106,1.426,-23.682,20.020,17.212
-0.103,0.103,1.410,-15.686,12.085,18.738
-0.076,0.085,1.385,-7.446,5.737,19.714
-0.057,0.052,1.357,-1.343,1.404,19.104
-0.041,0.024,1.324,1.404,-1.953,16.785
-0.029,0.001,1.282,1.953,-5.920,13.367
-0.025,-0.006,1.232,1.282,-9.583,8.972
-0.021,0.004,1.179,-0.488,-12.573,4.761
-0.016,0.004,1.135,-2.563,-15.381,1.404
-0.025,0.020,1.084,-5.310,-18.921,-1.892
-0.024,0.049,1.052,-8.057,-20.203,-2.319
-0.026,0.057,1.035,-7.996,-21.729,-2.502
-0.034,0.072,0.998,-5.615,-21.362,-2.808
-0.023,0.075,0.949,-1.953,-17.395,-2.075
-0.030,0.078,0.916,1.221,-15.869,-1.526
-0.026,0.081,0.908,2.686,-14.160,-0.488
-0.027,0.079,0.911,2.563,-13.062,0.549
-0.030,0.071,0.911,1.282,-13.977,1.587
-0.028,0.064,0.909,-0.366,-15.259,2.747
-0.024,0.056,0.899,-1.587,-15.747,3.418
-0.019,0.046,0.892,-2.014,-15.442,3.540
-0.017,0.039,0.892,-1.221,-13.855,2.991
-0.017,0.034,0.900,-0.183,-11.719,2.136
-0.020,0.035,0.903,0.977,-9.766,0.977
-0.022,0.044,0.906,2.014,-8.484,-0.305
-0.027,0.057,0.906,2.258,-7.507,-1.404
-0.031,0.066,0.906,2.319,-7.019,-1.465
-0.032,0.067,0.907,2.014,-6.897,-0.671
-0.032,0.063,0.912,1.282,-6.836,-0.122
-0.039,0.061,0.920,0.854,-6.592,0.000
-0.044,0.063,0.932,0.854,-6.226,0.183
-0.049,0.060,0.932,1.709,-5.920,0.122
-0.055,0.054,0.929,2.380,-5.432,0.061
-0.058,0.051,0.926,2.686,-4.944,-0.183
-0.063,0.052,0.930,2.502,-4.639,-0.305
-0.066,0.056,0.934,2.441,-4.089,-0.610
-0.070,0.059,0.934,2.502,-3.601,-0.549
-0.072,0.062,0.935,2.380,-3.174,-0.610
-0.076,0.067,0.939,2.136,-2.869,-0.732
-0.077,0.073,0.939,1.953,-2.869,-0.671
-0.078,0.071,0.936,1.526,-3.052,-0.244
-0.077,0.067,0.932,0.793,-2.869,0.122
-0.075,0.066,0.934,0.244,-2.502,0.122
-0.074,0.073,0.944,-0.244,-2.258,-0.122
-0.071,0.076,0.951,-0.244,-1.953,-0.305
-0.068,0.077,0.957,-0.366,-1.953,0.061
-0.062,0.076,0.964,-0.488,-1.648,0.305

1.145,-0.495,1.463,36.560,328.064,105.469
1.185,-0.638,1.599,39.185,312.256,95.642
1.238,-0.695,1.764,40.771,303.284,81.116
1.266,-0.654,1.944,36.743,299.988,66.162
1.280,-0.578,2.141,33.447,293.457,52.307
1.281,-0.554,2.368,36.316,278.564,42.908
1.235,-0.604,2.594,42.725,254.517,39.001
1.178,-0.712,2.788,47.302,224.792,36.072
1.128,-0.789,2.898,43.701,192.505,31.738
1.057,-0.846,2.976,30.151,166.077,25.269
1.009,-0.857,3.063,9.888,140.991,14.771
0.980,-0.787,3.101,-11.230,115.295,5.249
0.946,-0.683,3.069,-29.358,90.881,0.427
0.905,-0.606,3.007,-40.527,64.331,-1.038
0.882,-0.560,2.918,-45.166,35.461,-1.221
0.863,-0.529,2.813,-45.837,10.376,-0.732
0.841,-0.507,2.710,-43.396,-10.498,0.000
0.814,-0.506,2.625,-38.635,-29.663,0.366
0.787,-0.525,2.552,-34.363,-46.814,0.366
0.771,-0.549,2.487,-31.677,-63.110,-0.977
0.765,-0.568,2.408,-30.212,-78.552,-3.052
0.771,-0.576,2.335,-28.503,-93.567,-6.409
0.783,-0.577,2.260,-25.940,-108.826,-10.376
0.790,-0.559,2.159,-22.827,-124.512,-14.099
0.797,-0.541,2.041,-20.325,-139.038,-22.461
0.813,-0.488,1.801,-12.268,-165.222,-27.466
0.830,-0.452,1.701,-6.165,-177.063,-33.020
0.844,-0.411,1.596,0.244,-188.049,-38.208
0.838,-0.374,1.482,6.287,-197.388,-42.603
0.819,-0.344,1.363,10.559,-206.360,-46.509
0.802,-0.319,1.245,12.634,-213.928,-50.232
0.779,-0.292,1.133,12.207,-218.628,-53.711
0.746,-0.239,1.007,8.911,-220.032,-56.580
0.711,-0.178,0.888,4.761,-219.299,-58.350
0.678,-0.136,0.805,2.136,-217.407,-58.960
0.638,-0.106,0.757,-0.427,-214.233,-58.228
0.599,-0.083,0.714,-2.136,-210.754,-57.190
0.570,-0.047,0.663,-0.793,-209.045,-57.007
0.519,0.010,0.609,4.822,-208.923,-57.129
0.464,0.051,0.560,14.404,-210.876,-56.641
0.409,0.050,0.532,23.499,-213.135,-55.664
0.357,0.047,0.497,26.001,-213.440,-54.932
0.309,0.074,0.444,20.996,-210.266,-55.115
0.260,0.125,0.371,-1.892,-194.153,-52.612
0.175,0.165,0.278,-12.939,-183.044,-48.401
0.124,0.173,0.244,-22.949,-171.204,-43.274
0.077,0.204,0.200,-30.334,-160.217,-38.574
0.042,0.242,0.167,-33.325,-151.245,-33.875
0.002,0.267,0.141,-31.494,-143.799,-28.076
-0.037,0.271,0.133,-25.635,-135.620,-22.461
-0.087,0.256,0.112,-19.470,-128.296,-16.724
-0.139,0.246,0.079,-13.733,-121.887,-11.475
-0.193,0.233,0.041,-8.484,-114.746,-6.897
-0.246,0.215,0.025,-4.761,-106.567,-2.991
-0.288,0.200,0.020,-3.967,-97.595,0.061
-0.324,0.186,0.011,-6.775,-88.257,2.686
-0.354,0.163,0.005,-12.756,-77.881,4.456
-0.385,0.139,0.016,-19.348,-64.636,4.883
-0.409,0.124,0.044,-25.330,-50.171,4.944
-0.425,0.126,0.084,-28.748,-37.537,4.456
-0.438,0.133,0.123,-27.832,-28.259,4.883
-0.452,0.126,0.164,-21.851,-22.339,7.141
-0.472,0.102,0.216,-13.245,-19.409,9.583
-0.500,0.067,0.267,-5.798,-16.846,12.024
-0.529,0.022,0.314,-2.197,-13.855,14.221
-0.552,-0.017,0.355,-2.625,-9.583,15.381
-0.572,-0.041,0.393,-6.348,-3.906,15.320
-0.582,-0.058,0.427,-11.719,6.897,13.977
-0.581,-0.082,0.514,-20.447,12.207,13.306
-0.578,-0.087,0.563,-21.667,16.052,12.329
-0.575,-0.090,0.617,-20.081,17.761,10.925
-0.576,-0.095,0.659,-16.235,17.639,9.766
-0.581,-0.102,0.692,-10.742,15.869,8.606
-0.586,-0.109,0.718,-5.249,13.123,7.568
-0.589,-0.111,0.740,-1.526,11.169,6.348
-0.591,-0.106,0.745,0.244,10.681,5.310
-0.591,-0.104,0.750,0.427,11.536,4.822
-0.587,-0.109,0.766,-0.549,13.916,5.066
-0.583,-0.117,0.800,-3.479,17.761,5.615
-0.578,-0.119,0.834,-7.751,21.729,6.042
-0.568,-0.108,0.868,-11.841,24.475,6.165
-0.559,-0.098,0.892,-13.306,25.330,6.165
-0.552,-0.087,0.907,-12.451,24.170,6.226
-0.554,-0.089,0.921,-9.277,21.729,6.409
-0.558,-0.098,0.928,-5.493,18.555,6.470
-0.566,-0.110,0.933,-1.953,15.381,6.104
-0.571,-0.117,0.922,0.793,12.512,5.310
-0.579,-0.125,0.915,2.319,9.888,4.333
-0.580,-0.128,0.904,2.075,8.667,3.357
-0.578,-0.119,0.901,0.854,8.850,1.465
-0.561,-0.095,0.899,-2.197,9.155,0.671
-0.554,-0.090,0.896,-2.991,9.216,0.427
-0.542,-0.086,0.901,-3.601,9.216,0.183
-0.532,-0.076,0.906,-3.174,8.728,-0.305
-0.529,-0.065,0.910,-1.221,7.202,-0.732
-0.528,-0.060,0.904,1.221,4.944,-0.854
-0.528,-0.061,0.895,3.113,2.869,-0.916
-0.527,-0.062,0.883,3.540,1.831,-0.977
-0.528,-0.058,0.873,2.991,1.526,-1.038
-0.525,-0.056,0.863,1.892,1.221,-0.793
-0.525,-0.055,0.854,1.160,1.343,-0.305
-0.527,-0.060,0.852,0.549,1.343,0.427
-0.526,-0.066,0.852,0.000,1.465,0.732
-0.524,-0.066,0.854,0.061,1.099,0.671
-0.523,-0.065,0.851,0.854,0.549,0.549
-0.520,-0.067,0.846,1.404,-0.305,0.366
-0.521,-0.072,0.842,2.258,-0.793,0.366
-0.524,-0.076,0.837,2.380,-0.977,0.427
-0.529,-0.072,0.832,1.892,-1.099,0.061
-0.532,-0.064,0.825,1.892,-1.099,-0.793
-0.538,-0.060,0.820,2.197,-1.648,-0.977
-0.537,-0.055,0.822,1.892,-1.587,-1.221
-0.531,-0.047,0.825,1.099,-1.404,-1.465
-0.525,-0.038,0.828,0.000,-1.160,-1.648
-0.522,-0.035,0.826,-0.610,-1.099,-1.404
-0.521,-0.034,0.824,-0.244,-1.282,-0.977
-0.520,-0.036,0.829,0.793,-1.343,-0.488
-0.519,-0.038,0.834,1.831,-1.465,-0.244
-0.519,-0.037,0.833,2.197,-1.648,-0.061
-0.410,0.203,2.088,30.212,17.578,27.954
-0.391,0.176,2.219,28.015,5.981,35.522
-0.353,0.145,2.319,23.804,-10.193,41.748
-0.313,0.128,2.408,21.057,-29.053,45.776
-0.271,0.104,2.461,23.560,-47.363,48.584
-0.227,0.056,2.455,32.410,-63.293,50.598
-0.187,-0.015,2.387,44.128,-78.125,50.293
-0.131,-0.092,2.281,54.443,-92.712,47.729
-0.083,-0.168,2.161,60.791,-106.934,42.542
-0.044,-0.227,2.049,64.087,-119.812,34.729
-0.006,-0.260,1.947,66.772,-131.775,25.024
0.028,-0.270,1.848,69.092,-142.700,13.733
0.065,-0.263,1.725,70.557,-153.809,2.014
0.094,-0.248,1.573,69.397,-165.344,-9.277
0.112,-0.203,1.413,63.110,-177.734,-21.179
0.121,-0.130,1.283,52.673,-189.514,-31.677
0.124,-0.060,1.165,41.870,-199.097,-38.330
0.131,-0.012,1.037,33.020,-207.336,-41.199
0.145,0.016,0.898,26.794,-213.867,-41.931
0.163,0.033,0.756,22.705,-216.919,-41.565
0.170,0.042,0.594,19.836,-216.614,-41.931
0.164,0.054,0.435,15.320,-214.844,-42.175
0.157,0.073,0.298,7.568,-213.013,-41.687
0.158,0.077,0.165,-1.770,-211.243,-39.978
0.175,0.097,0.017,-10.803,-210.449,-36.926
0.219,0.078,-0.185,-18.555,-209.656,-32.288
0.241,0.040,-0.398,-26.245,-203.491,-30.212
0.271,0.006,-0.609,-35.034,-199.829,-26.733
0.294,-0.027,-0.810,-44.495,-196.228,-22.766
0.327,-0.066,-1.001,-52.002,-188.232,-19.836
0.344,-0.101,-1.169,-56.641,-173.218,-18.677
0.357,-0.136,-1.314,-58.105,-149.048,-17.944
0.363,-0.169,-1.394,-57.556,-118.347,-17.639
0.349,-0.207,-1.408,-54.993,-84.045,-17.761
0.321,-0.243,-1.367,-49.622,-47.852,-18.738
0.286,-0.272,-1.286,-41.565,-10.925,-20.630
0.246,-0.285,-1.169,-32.166,25.879,-25.635
0.202,-0.255,-1.013,-23.437,60.791,-33.020
0.132,-0.181,-0.811,-14.893,91.736,-40.771
0.067,-0.059,-0.572,-5.859,117.493,-45.471
-0.001,0.050,-0.356,5.859,139.709,-45.654
-0.055,0.134,-0.162,17.273,157.166,-41.565
-0.095,0.181,0.041,23.010,167.480,-33.752
-0.125,0.191,0.248,24.231,171.326,-24.475
-0.141,0.169,0.423,25.208,171.936,-15.625
-0.139,0.132,0.549,27.405,172.363,-8.972
-0.147,0.115,0.651,30.151,174.255,-6.226
-0.166,0.110,0.723,32.776,178.589,-6.531
-0.173,0.127,0.781,33.142,183.838,-7.263
-0.165,0.150,0.862,29.053,188.843,-6.042
-0.151,0.162,0.976,20.569,195.312,-2.686
-0.138,0.128,1.098,9.338,203.064,2.136
-0.121,0.077,1.213,-2.991,208.313,5.798
-0.100,0.050,1.328,-15.381,208.679,6.775
-0.101,0.045,1.474,-25.757,205.811,4.761
-0.122,0.078,1.613,-30.273,199.097,0.305
-0.150,0.116,1.690,-27.527,190.613,-3.296
-0.147,0.146,1.678,-19.226,179.993,-6.409
-0.165,0.178,1.625,-10.376,172.302,-8.972
-0.201,0.168,1.609,-2.319,162.476,-7.629
-0.186,0.194,1.536,2.747,157.837,-5.310
-0.173,0.188,1.507,4.822,168.640,-3.174
-0.170,0.207,1.594,2.747,165.588,1.038
-0.164,0.218,1.742,-1.038,155.396,8.606
-0.167,0.199,1.883,-4.395,140.503,15.930
-0.172,0.161,1.958,-9.216,119.202,21.484
-0.257,0.090,1.958,-16.479,96.924,24.719
-0.135,0.058,1.809,-25.513,79.407,22.461
-0.173,0.089,1.900,-33.325,67.200,18.799
-0.155,0.125,1.918,-34.729,35.583,20.752
-0.172,0.060,1.893,-30.579,33.447,16.174
-0.155,0.005,1.776,-19.287,40.955,8.911
-0.147,0.000,1.708,-9.460,41.687,6.226
-0.145,-0.006,1.651,0.549,38.208,4.333
-0.144,-0.002,1.608,5.432,31.250,2.563
-0.138,0.002,1.566,4.456,21.851,1.526
-0.139,0.015,1.530,-0.549,10.071,0.916
-0.134,0.029,1.494,-6.409,-2.625,1.160
-0.129,0.042,1.458,-11.047,-14.343,0.671
-0.121,0.046,1.413,-14.221,-24.658,-0.549
-0.113,0.045,1.351,-15.930,-32.593,-2.136
-0.112,0.042,1.278,-16.235,-37.842,-4.089
-0.114,0.051,1.207,-15.137,-40.283,-6.653
-0.115,0.068,1.150,-12.390,-39.917,-8.728
-0.118,0.085,1.106,-8.789,-38.025,-9.338
-0.116,0.105,1.059,-5.371,-35.156,-8.972
-0.107,0.097,1.035,-3.418,-33.875,-7.324
-0.108,0.115,0.990,-3.601,-33.691,-5.615
-0.092,0.116,0.986,-5.371,-31.311,-2.014
-0.086,0.112,0.963,-7.385,-33.264,0.427
-0.071,0.091,0.943,-9.888,-30.518,3.479
-0.059,0.071,0.924,-11.108,-29.358,5.066
-0.058,0.061,0.917,-11.597,-29.663,5.615
-0.055,0.062,0.916,-10.559,-28.381,4.639
-0.058,0.067,0.913,-8.423,-27.527,3.540
-0.055,0.069,0.902,-5.554,-26.489,2.930
-0.054,0.070,0.892,-3.113,-24.963,2.441
-0.056,0.070,0.887,-1.343,-23.132,1.709
-0.058,0.070,0.885,0.061,-21.240,1.221
-0.063,0.069,0.879,0.977,-19.348,0.793
-0.069,0.069,0.871,1.221,-18.005,0.366
-0.074,0.068,0.865,0.793,-16.724,0.427
-0.084,0.066,0.867,0.061,-15.320,0.183
-0.093,0.065,0.869,-0.427,-14.038,-0.183
-0.100,0.065,0.868,-0.305,-12.817,-0.305
-0.105,0.065,0.870,-0.183,-11.902,-0.488
-0.112,0.067,0.877,-0.305,-10.986,-0.854
-0.119,0.071,0.885,-0.244,-10.315,-0.732
-0.125,0.075,0.888,0.122,-9.766,-0.549
-0.130,0.080,0.888,0.549,-8.972,-0.488
-0.135,0.087,0.891,1.160,-7.935,-0.427
-0.138,0.095,0.901,1.343,-6.897,0.000
-0.138,0.097,0.905,1.404,-6.042,0.732
-0.136,0.096,0.912,1.160,-5.066,1.465
-0.135,0.096,0.931,0.854,-4.272,2.197
-0.130,0.093,0.946,1.160,-3.784,3.174
-0.126,0.086,0.953,1.892,-3.174,3.967
-0.124,0.077,0.956,2.380,-2.991,4.395
-0.120,0.069,0.954,2.625,-2.930,4.211

1.396,-0.588,1.632,24.902,368.713,90.637
1.443,-0.676,1.830,48.645,341.431,72.754
1.483,-0.709,2.033,82.642,315.613,57.129
1.468,-0.725,2.313,114.380,292.114,44.434
1.430,-0.704,2.607,126.953,268.616,34.851
1.367,-0.648,2.797,117.188,245.850,29.419
1.297,-0.584,2.869,90.088,227.234,30.273
1.201,-0.570,2.893,56.213,212.402,36.133
1.102,-0.607,2.921,23.804,197.571,42.542
1.009,-0.669,2.939,-3.418,180.481,45.593
0.952,-0.701,2.956,-24.536,160.889,43.579
0.881,-0.739,2.937,-37.903,137.756,38.818
0.827,-0.769,2.921,-43.579,111.511,28.137
0.801,-0.743,2.889,-43.518,77.576,15.381
0.780,-0.671,2.788,-37.537,44.678,6.287
0.749,-0.616,2.690,-27.771,18.433,0.732
0.717,-0.587,2.609,-18.616,-6.226,-2.136
0.697,-0.561,2.518,-14.221,-28.320,-3.906
0.687,-0.549,2.437,-13.977,-45.654,-4.639
0.677,-0.564,2.368,-15.686,-59.692,-3.479
0.664,-0.606,2.301,-18.433,-71.716,-2.380
0.648,-0.660,2.238,-22.156,-82.031,-1.831
0.639,-0.703,2.175,-26.001,-92.346,-3.357
0.624,-0.702,2.090,-27.710,-103.516,-7.935
0.619,-0.677,1.996,-25.879,-115.112,-14.221
0.637,-0.643,1.904,-20.874,-127.991,-21.484
0.676,-0.606,1.836,-12.634,-141.052,-29.541
0.719,-0.574,1.798,-2.747,-153.259,-38.452
0.766,-0.540,1.788,5.981,-164.368,-55.359
0.829,-0.438,1.691,14.709,-186.951,-60.852
0.830,-0.397,1.588,16.663,-198.853,-63.904
0.833,-0.377,1.473,17.639,-210.144,-65.430
0.831,-0.365,1.369,16.541,-218.201,-66.895
0.818,-0.347,1.275,12.573,-222.351,-68.054
0.803,-0.323,1.186,6.165,-224.426,-70.007
0.775,-0.275,1.087,-0.061,-225.525,-72.449
0.750,-0.229,0.993,-4.700,-226.257,-74.036
0.722,-0.183,0.923,-4.517,-227.478,-75.378
0.688,-0.119,0.859,0.549,-230.103,-76.843
0.673,-0.081,0.804,8.057,-234.985,-77.026
0.660,-0.052,0.776,16.479,-239.380,-76.050
0.620,-0.020,0.738,22.888,-240.662,-74.158
0.556,0.006,0.684,22.766,-240.234,-70.557
0.501,0.022,0.613,16.541,-238.464,-66.528
0.439,0.044,0.525,4.578,-234.741,-62.805
0.374,0.094,0.406,-10.803,-229.187,-59.143
0.307,0.159,0.269,-26.001,-221.802,-55.725
0.232,0.216,0.123,-36.194,-213.013,-51.636
0.169,0.253,0.015,-39.795,-202.209,-46.997
0.097,0.271,-0.036,-38.574,-189.026,-41.870
0.030,0.299,-0.067,-36.194,-174.988,-36.865
-0.026,0.328,-0.105,-33.875,-162.903,-31.799
-0.083,0.351,-0.142,-30.396,-151.917,-26.611
-0.128,0.361,-0.189,-22.339,-129.578,-12.756
-0.236,0.353,-0.272,-19.226,-115.601,-5.005
-0.293,0.353,-0.292,-18.860,-101.318,3.479
-0.352,0.303,-0.258,-20.081,-88.867,11.536
-0.393,0.230,-0.208,-23.132,-76.355,15.625
-0.444,0.173,-0.164,-27.649,-61.951,16.113
-0.489,0.114,-0.163,-31.555,-48.401,14.893
-0.511,0.097,-0.131,-31.189,-37.048,11.414
-0.535,0.104,-0.098,-26.794,-29.114,10.986
-0.548,0.097,-0.051,-18.860,-23.193,11.475
-0.557,0.067,0.021,-10.254,-18.433,13.062
-0.567,0.040,0.094,-5.310,-12.817,16.357
-0.586,0.004,0.152,-5.554,-6.042,19.226
-0.598,-0.026,0.203,-9.705,0.183,19.653
-0.611,-0.043,0.258,-16.785,7.751,18.921
-0.626,-0.043,0.303,-24.475,15.564,18.188
-0.636,-0.038,0.338,-29.419,21.667,16.357
-0.649,-0.077,0.427,-26.428,28.137,15.869
-0.656,-0.114,0.483,-20.996,28.748,14.832
-0.660,-0.146,0.529,-15.625,29.663,13.245
-0.655,-0.165,0.575,-11.414,31.311,10.620
-0.645,-0.168,0.629,-7.751,33.081,7.507
-0.634,-0.167,0.702,-4.517,34.729,5.066
-0.626,-0.163,0.766,-2.747,35.889,3.540
-0.617,-0.154,0.816,-2.991,36.255,2.502
-0.645,-0.132,0.918,-4.883,34.912,2.075
-0.614,-0.127,0.885,-7.324,34.363,1.953
-0.648,-0.179,0.900,-9.583,34.302,2.075
-0.610,-0.150,0.928,-12.512,28.503,-2.380
-0.612,-0.083,0.906,-16.724,27.039,1.587
-0.604,-0.063,0.902,-16.357,27.649,3.845
-0.612,-0.083,0.915,-13.245,24.414,5.066
-0.615,-0.098,0.922,-11.475,23.010,6.714
-0.618,-0.106,0.918,-10.254,21.667,6.531
-0.617,-0.116,0.918,-7.629,19.592,5.371
-0.619,-0.120,0.913,-4.333,17.700,4.089
-0.620,-0.118,0.903,-1.160,15.869,3.113
-0.618,-0.116,0.895,1.648,13.794,2.136
-0.611,-0.113,0.896,2.930,12.207,1.160
-0.603,-0.105,0.901,2.319,11.414,0.671
-0.597,-0.090,0.898,0.488,11.414,0.244
-0.591,-0.084,0.893,-1.709,11.597,0.488
-0.591,-0.083,0.885,-3.113,11.353,1.343
-0.593,-0.085,0.873,-3.357,11.047,2.014
-0.595,-0.085,0.864,-2.319,10.254,1.770
-0.593,-0.085,0.856,0.061,8.728,1.099
-0.594,-0.096,0.867,3.113,6.592,0.061
-0.609,-0.123,0.849,5.310,5.127,-1.282
-0.572,-0.078,0.877,5.066,1.160,-1.465
-0.564,-0.049,0.858,2.075,2.747,-0.061
-0.561,-0.067,0.856,1.648,1.160,-0.488
-0.554,-0.061,0.842,0.000,2.136,1.160
-0.559,-0.061,0.837,-0.732,3.235,1.343
-0.557,-0.071,0.841,-0.183,1.831,0.427
-0.556,-0.068,0.832,0.549,0.549,-0.183
-0.561,-0.059,0.821,1.709,-0.366,-0.488
-0.565,-0.052,0.812,2.747,-1.160,-0.488
-0.567,-0.049,0.803,2.930,-1.648,-0.305
-0.568,-0.048,0.792,2.686,-1.404,0.000
-0.568,-0.056,0.790,2.380,-1.038,0.061
-0.562,-0.066,0.791,0.916,-0.366,-0.549
-0.562,-0.065,0.793,0.061,-0.244,-0.916
-0.564,-0.065,0.796,-0.488,-0.061,-0.793
-0.567,-0.063,0.801,-1.038,0.000,-0.732
-0.570,-0.056,0.803,-1.282,0.122,-0.610
-0.573,-0.050,0.802,-0.854,0.061,-0.610
-0.443,0.219,2.016,22.766,14.404,17.578
-0.446,0.217,2.133,22.888,5.127,23.621
-0.446,0.193,2.227,20.630,-8.118,29.907
-0.431,0.149,2.280,19.104,-24.414,36.499
-0.398,0.089,2.288,20.813,-41.077,41.931
-0.340,0.040,2.280,26.306,-56.274,44.250
-0.277,0.001,2.266,34.424,-69.031,44.067
-0.213,-0.036,2.243,44.250,-79.895,41.748
-0.156,-0.075,2.197,52.734,-91.858,37.170
-0.106,-0.116,2.124,55.481,-107.727,31.189
-0.068,-0.153,2.029,52.002,-127.136,23.865
-0.025,-0.170,1.925,44.983,-148.254,15.381
0.001,-0.177,1.807,38.391,-167.664,6.287
0.025,-0.173,1.661,35.339,-184.387,-2.869
0.049,-0.157,1.487,35.461,-198.425,-11.353
0.067,-0.123,1.300,36.011,-209.412,-19.470
0.089,-0.076,1.115,34.912,-217.651,-26.428
0.109,-0.036,0.932,31.799,-223.450,-31.433
0.123,-0.006,0.738,26.062,-227.478,-35.339
0.124,0.035,0.579,17.151,-231.262,-38.086
0.127,0.073,0.447,7.446,-233.643,-39.063
0.126,0.095,0.313,-0.122,-232.910,-38.635
0.126,0.101,0.179,-5.615,-229.919,-36.926
0.134,0.113,0.042,-9.766,-226.013,-33.752
0.167,0.097,-0.121,-13.855,-221.619,-29.053
0.188,0.063,-0.292,-19.043,-210.999,-27.222
0.205,0.031,-0.477,-26.306,-202.515,-24.902
0.213,0.009,-0.633,-37.170,-197.266,-21.240
0.234,-0.027,-0.779,-48.035,-190.979,-16.479
0.249,-0.083,-0.919,-55.725,-180.298,-12.512
0.272,-0.147,-1.053,-58.777,-162.537,-9.338
0.277,-0.216,-1.157,-57.373,-138.794,-7.141
0.273,-0.281,-1.227,-52.002,-111.206,-6.714
0.266,-0.325,-1.253,-44.373,-80.750,-8.911
0.250,-0.353,-1.240,-35.645,-48.035,-13.000
0.226,-0.366,-1.191,-26.367,-14.343,-18.433
0.201,-0.365,-1.115,-17.334,19.409,-25.269
0.179,-0.344,-1.007,-9.460,52.795,-33.691
0.160,-0.281,-0.860,-3.601,83.130,-43.335
0.129,-0.179,-0.685,0.488,107.849,-51.453
0.078,-0.080,-0.505,4.822,128.540,-55.847
0.031,0.016,-0.347,10.925,145.508,-57.129
-0.005,0.105,-0.196,17.151,157.532,-54.199
-0.032,0.168,-0.055,22.949,165.955,-47.852
-0.051,0.200,0.061,29.846,172.791,-39.673
-0.045,0.206,0.148,39.368,180.786,-31.067
-0.031,0.199,0.218,50.232,192.444,-22.705
-0.018,0.193,0.287,60.059,206.665,-16.235
-0.002,0.197,0.374,66.772,224.121,-11.658
-0.004,0.208,0.484,69.397,244.141,-8.728
0.006,0.231,0.612,69.580,264.648,-5.310
0.021,0.233,0.755,66.833,285.034,-0.366
0.063,0.197,0.878,57.312,299.988,5.676
0.126,0.207,1.076,38.147,307.922,11.597
0.174,0.237,1.334,13.245,307.190,15.442
0.170,0.273,1.593,-12.756,302.185,21.240
0.158,0.288,1.816,-36.011,290.527,28.381
0.125,0.273,1.983,-51.941,274.109,32.227
0.109,0.258,2.064,-58.044,260.437,35.095
0.058,0.255,2.198,-54.810,238.403,36.743
0.032,0.274,2.277,-44.312,223.816,35.278
0.025,0.242,2.263,-25.085,221.741,34.668
0.012,0.207,2.199,-4.272,206.604,35.461
0.014,0.184,2.175,11.047,184.692,36.438
0.023,0.161,2.206,19.958,157.776,38.208
0.020,0.118,2.214,19.531,130.615,41.321
0.031,0.054,2.193,8.118,107.483,43.091
0.073,-0.001,2.180,-11.841,82.764,41.626
0.041,-0.020,2.130,-34.912,58.350,36.804
0.041,-0.036,2.069,-52.856,36.133,33.997
0.048,-0.056,2.035,-60.425,19.043,26.550
0.049,-0.089,1.938,-55.664,13.550,16.418
0.049,-0.090,1.850,-44.006,13.123,8.972
-0.002,-0.065,1.764,-28.320,9.277,3.784
0.048,-0.022,1.679,-13.489,7.141,0.183
0.010,-0.028,1.631,-2.747,-3.357,-1.465
0.004,-0.002,1.525,0.610,-12.024,-3.967
0.003,0.003,1.435,-1.099,-13.123,-7.324
-0.023,0.055,1.400,-6.958,-26.550,-8.362
-0.019,0.081,1.360,-13.611,-37.598,-7.202
-0.036,0.090,1.307,-18.250,-42.542,-7.690
-0.032,0.097,1.259,-21.179,-48.645,-6.104
-0.026,0.089,1.213,-20.203,-51.941,-5.493
-0.017,0.076,1.165,-16.235,-51.331,-6.042
-0.007,0.072,1.120,-11.536,-49.744,-7.141
0.000,0.077,1.081,-6.958,-47.058,-8.911
0.010,0.087,1.044,-3.052,-44.922,-10.620
0.019,0.104,1.016,-0.488,-44.373,-11.597
0.027,0.116,0.986,0.732,-44.128,-11.353
0.031,0.121,0.952,0.732,-44.067,-10.620
0.030,0.128,0.924,-0.427,-43.762,-9.583
0.025,0.138,0.910,-2.258,-43.152,-8.484
0.016,0.146,0.904,-3.906,-42.480,-6.470
0.009,0.145,0.895,-5.310,-41.687,-4.395
0.005,0.138,0.883,-6.409,-41.077,-2.563
0.002,0.130,0.877,-7.080,-39.856,-1.465
-0.001,0.124,0.880,-6.531,-37.842,-0.610
-0.007,0.115,0.883,-4.211,-34.790,-0.183
-0.014,0.103,0.883,-0.732,-31.799,-0.122
-0.017,0.094,0.885,2.930,-29.053,-0.061
-0.021,0.091,0.890,6.042,-27.222,-0.183
-0.029,0.089,0.893,8.911,-25.757,-0.366
-0.036,0.086,0.889,11.047,-24.536,-0.366
-0.044,0.083,0.887,11.902,-23.926,-0.610
-0.057,0.084,0.890,11.597,-23.254,-0.916
-0.069,0.086,0.896,10.864,-22.705,-0.977
-0.078,0.087,0.896,10.010,-22.095,-0.916
-0.089,0.085,0.894,9.094,-21.179,-0.610
-0.093,0.088,0.895,7.812,-19.897,0.000
-0.098,0.086,0.907,6.714,-18.494,0.854
-0.101,0.080,0.916,6.287,-17.395,2.014
-0.102,0.071,0.920,6.653,-16.418,2.930
-0.099,0.070,0.927,7.446,-15.320,3.479
-0.099,0.068,0.933,8.728,-14.221,3.479
-0.096,0.062,0.928,10.071,-13.245,3.174
-0.098,0.059,0.923,10.864,-12.085,2.075
-0.099,0.064,0.921,10.681,-11.597,0.854
-0.101,0.067,0.918,9.521,-11.658,-0.183
-0.105,0.072,0.913,7.690,-11.902,-1.038

1.388,-0.428,1.609,32.837,359.070,90.393
1.420,-0.592,1.888,79.651,327.637,80.688
1.370,-0.825,2.155,128.967,293.030,74.951
1.282,-1.052,2.413,164.978,261.597,65.369
1.218,-1.165,2.604,174.316,238.953,50.842
1.194,-1.133,2.691,155.884,226.013,38.391
1.142,-1.047,2.813,117.920,223.694,32.532
1.124,-0.956,2.986,71.106,219.849,32.532
1.081,-0.904,3.079,27.161,212.036,35.400
1.033,-0.875,3.126,-5.432,202.942,37.720
0.970,-0.876,3.167,-23.865,184.082,40.466
0.902,-0.924,3.201,-32.532,153.625,41.809
0.859,-0.944,3.159,-35.034,117.371,35.461
0.825,-0.933,3.065,-33.752,81.543,26.489
0.794,-0.895,2.957,-30.640,46.387,16.846
0.776,-0.837,2.811,-27.832,14.893,7.874
0.756,-0.790,2.661,-25.269,-10.925,0.488
0.741,-0.767,2.521,-23.315,-34.058,-4.578
0.724,-0.752,2.408,-23.376,-53.955,-7.690
0.703,-0.732,2.299,-25.085,-71.411,-8.789
0.693,-0.709,2.196,-26.428,-87.097,-10.376
0.688,-0.685,2.096,-26.001,-100.403,-12.817
0.679,-0.659,1.998,-24.109,-112.671,-20.630
0.674,-0.596,1.831,-13.062,-135.925,-26.245
0.692,-0.573,1.775,-6.348,-147.400,-32.471
0.717,-0.529,1.726,-1.892,-157.104,-39.185
0.758,-0.503,1.683,0.916,-166.016,-45.288
0.768,-0.501,1.738,2.319,-174.011,-50.842
0.850,-0.447,1.514,1.343,-189.514,-58.350
0.793,-0.394,1.457,0.488,-179.932,-64.514
0.827,-0.308,1.399,-7.080,-187.195,-62.500
0.827,-0.289,1.373,-9.888,-199.280,-63.416
0.814,-0.247,1.276,-15.320,-206.177,-62.927
0.803,-0.195,1.143,-18.066,-213.501,-61.340
0.768,-0.157,1.021,-16.968,-219.116,-58.899
0.728,-0.135,0.896,-13.794,-221.985,-56.274
0.670,-0.132,0.785,-10.376,-219.238,-53.467
0.538,-0.071,0.799,-12.390,-211.731,-52.917
0.434,-0.129,0.482,-13.367,-209.412,-57.434
0.433,-0.030,0.446,-17.395,-197.815,-65.125
0.382,0.044,0.329,-20.081,-206.848,-64.453
0.368,0.126,0.234,-16.541,-199.829,-62.805
0.299,0.128,0.168,-12.756,-191.833,-55.420
0.238,0.046,0.180,-9.888,-184.692,-50.232
0.174,0.006,0.173,-13.733,-175.110,-47.424
0.126,0.038,0.125,-22.095,-164.307,-47.180
0.088,0.097,0.073,-28.809,-154.114,-47.241
0.053,0.150,0.024,-31.860,-144.043,-45.044
0.010,0.167,0.008,-31.799,-133.118,-40.283
-0.038,0.161,0.016,-31.067,-123.169,-35.217
-0.082,0.168,0.035,-31.433,-114.685,-30.945
-0.120,0.173,0.038,-31.372,-107.361,-26.550
-0.152,0.177,0.011,-29.785,-99.670,-22.400
-0.197,0.160,0.010,-27.405,-89.539,-18.555
-0.229,0.142,0.026,-25.208,-80.261,-16.479
-0.261,0.142,0.042,-25.024,-69.214,-15.198
-0.292,0.146,0.070,-26.184,-57.190,-13.184
-0.319,0.149,0.109,-27.466,-39.856,-6.226
-0.372,0.141,0.187,-27.527,-32.837,-2.136
-0.405,0.089,0.244,-25.146,-27.527,1.770
-0.441,0.035,0.291,-22.339,-23.315,3.967
-0.473,-0.001,0.326,-18.433,-20.020,3.540
-0.502,-0.015,0.359,-13.123,-17.151,1.526
-0.523,-0.012,0.400,-6.653,-14.160,-0.610
-0.543,-0.015,0.447,-1.709,-11.230,-1.465
-0.559,-0.021,0.488,0.977,-8.423,-1.404
-0.568,-0.034,0.527,1.526,-5.371,-0.916
-0.578,-0.043,0.559,0.183,-2.136,0.183
-0.586,-0.049,0.592,-2.258,1.404,1.282
-0.592,-0.052,0.627,-4.639,5.493,2.319
-0.598,-0.056,0.657,-6.104,9.033,3.052
-0.599,-0.059,0.685,-6.470,11.658,3.174
-0.601,-0.062,0.713,-5.981,13.489,2.686
-0.598,-0.057,0.733,-5.127,14.160,1.892
-0.590,-0.051,0.756,-4.150,15.015,0.427
-0.574,-0.020,0.820,-2.075,14.526,0.000
-0.568,-0.017,0.774,-1.526,17.517,3.418
-0.599,-0.043,0.823,1.343,21.790,2.563
-0.582,-0.049,0.871,-0.061,14.587,3.052
-0.576,-0.046,0.887,-2.380,10.620,6.653
-0.581,-0.069,0.898,-2.686,10.315,8.118
-0.580,-0.099,0.920,-1.831,7.812,7.996
-0.575,-0.103,0.931,-1.831,7.141,6.409
-0.569,-0.098,0.942,-1.892,6.592,4.578
-0.567,-0.092,0.954,-1.831,5.554,3.357
-0.561,-0.082,0.958,-2.197,4.700,2.441
-0.553,-0.066,0.942,-2.563,3.906,1.648
-0.551,-0.044,0.926,-2.686,3.906,1.526
-0.545,-0.037,0.919,-2.563,2.991,2.136
-0.546,-0.038,0.913,-2.563,1.587,2.869
-0.547,-0.039,0.895,-3.052,0.244,3.479
-0.549,-0.040,0.873,-3.174,-1.221,3.296
-0.553,-0.042,0.854,-2.563,-2.319,2.686
-0.559,-0.059,0.844,-1.099,-3.235,2.502
-0.557,-0.061,0.844,-1.221,-2.869,1.953
-0.553,-0.049,0.838,-1.953,-2.380,1.343
-0.550,-0.040,0.830,-1.892,-2.258,1.343
-0.546,-0.041,0.824,-1.038,-2.319,1.770
-0.545,-0.042,0.820,-0.061,-2.563,2.136
-0.544,-0.043,0.815,0.122,-2.686,2.319
-0.541,-0.039,0.810,0.427,-2.808,2.136
-0.536,-0.039,0.804,0.244,-2.869,2.197
-0.534,-0.047,0.804,0.000,-2.930,2.380
-0.531,-0.056,0.810,-0.305,-2.686,2.686
-0.532,-0.060,0.814,-0.793,-2.258,2.502
-0.531,-0.056,0.810,-1.038,-2.197,1.648
-0.530,-0.052,0.806,-0.610,-2.258,1.221
-0.530,-0.045,0.802,0.000,-2.380,0.610
-0.526,-0.039,0.798,1.587,-2.197,0.732
-0.526,-0.036,0.798,1.526,-2.014,0.671
-0.525,-0.032,0.799,0.854,-1.648,0.793
-0.525,-0.032,0.804,0.610,-1.465,1.099
-0.529,-0.041,0.809,0.732,-1.526,1.770
-0.535,-0.049,0.808,0.732,-1.465,2.136
-0.537,-0.054,0.809,0.549,-1.465,1.892
-0.542,-0.056,0.814,0.061,-1.404,1.892
-0.543,-0.056,0.814,-0.732,-1.343,1.770
-0.543,-0.056,0.810,-1.160,-1.343,1.587
-0.544,-0.056,0.803,-1.099,-1.343,1.648
-0.445,0.168,2.266,-16.602,-14.954,25.024
-0.459,0.140,2.385,-18.494,-31.128,31.006
-0.456,0.110,2.446,-11.597,-46.448,35.400
-0.423,0.088,2.482,3.052,-60.547,38.696
-0.383,0.076,2.502,23.376,-72.998,39.856
-0.327,0.054,2.496,45.593,-85.266,40.039
-0.277,-0.004,2.439,65.308,-99.487,38.635
-0.211,-0.063,2.349,78.125,-116.089,34.668
-0.147,-0.113,2.238,82.458,-133.972,28.198
-0.095,-0.160,2.111,78.613,-153.198,19.836
-0.051,-0.205,1.979,67.627,-174.500,10.559
-0.015,-0.224,1.831,52.246,-196.228,0.000
0.018,-0.205,1.659,38.025,-216.492,-11.108
0.037,-0.166,1.458,27.161,-233.398,-22.949
0.056,-0.110,1.241,18.677,-246.826,-33.386
0.075,-0.043,1.014,10.559,-257.690,-41.382
0.090,0.023,0.781,1.831,-265.808,-47.058
0.107,0.100,0.555,-8.179,-271.851,-49.866
0.125,0.166,0.333,-18.372,-274.292,-50.049
0.139,0.223,0.114,-27.649,-272.034,-47.668
0.165,0.270,-0.107,-35.400,-265.991,-42.053
0.193,0.291,-0.296,-41.626,-255.127,-33.020
0.236,0.283,-0.485,-44.922,-240.967,-22.156
0.289,0.230,-0.686,-43.823,-225.281,-9.888
0.340,0.141,-0.880,-38.879,-200.073,-1.892
0.381,0.055,-1.035,-33.264,-175.232,4.395
0.435,-0.005,-1.155,-29.053,-152.588,10.010
0.487,-0.068,-1.248,-24.902,-127.625,13.306
0.529,-0.135,-1.311,-21.729,-100.220,13.489
0.555,-0.204,-1.342,-18.982,-69.153,12.146
0.574,-0.271,-1.347,-14.343,-35.400,8.728
0.567,-0.330,-1.328,-8.545,-1.770,1.892
0.542,-0.368,-1.282,-4.150,30.579,-7.874
0.496,-0.380,-1.211,-3.662,60.791,-20.447
0.425,-0.355,-1.105,-7.385,87.158,-34.546
0.337,-0.295,-0.957,-13.306,110.718,-47.791
0.242,-0.223,-0.786,-19.104,131.409,-56.885
0.146,-0.142,-0.602,-21.057,149.780,-60.608
0.076,-0.058,-0.409,-15.564,168.823,-59.570
0.020,0.033,-0.194,-1.831,190.247,-55.237
-0.032,0.115,0.034,19.531,212.524,-46.936
-0.073,0.173,0.234,48.645,236.938,-35.889
-0.092,0.185,0.382,80.078,260.803,-23.193
-0.067,0.171,0.515,101.196,280.823,-11.658
-0.029,0.159,0.689,100.220,292.236,-5.554
0.000,0.163,0.896,76.294,292.664,-5.920
0.014,0.191,1.138,39.246,284.363,-10.620
0.039,0.242,1.428,1.343,272.278,-15.381
0.038,0.310,1.804,-33.936,259.399,-18.555
-0.015,0.362,2.147,-61.401,242.371,-20.508
-0.106,0.392,2.391,-73.059,220.032,-20.081
-0.182,0.396,2.491,-66.101,196.472,-15.991
-0.243,0.387,2.466,-44.800,177.246,-9.949
-0.299,0.331,2.365,-16.846,167.969,-4.089
-0.328,0.308,2.251,11.169,167.297,1.953
-0.328,0.253,2.109,34.119,159.851,9.583
-0.316,0.235,1.969,48.462,162.903,13.062
-0.302,0.198,1.862,57.922,170.105,17.700
-0.281,0.182,1.835,58.777,158.081,25.146
-0.234,0.130,1.861,50.171,134.705,33.508
-0.208,0.070,1.897,32.776,102.234,38.330
-0.232,-0.013,1.907,9.888,73.181,39.063
-0.166,-0.076,1.806,-11.108,53.467,33.264
-0.173,-0.034,1.827,-28.625,39.856,23.987
-0.154,-0.038,1.829,-37.903,16.235,20.081
-0.177,-0.045,1.766,-38.940,5.188,7.385
-0.158,-0.053,1.618,-31.799,13.489,-4.395
-0.166,-0.003,1.527,-24.231,14.160,-11.230
-0.178,0.062,1.481,-14.893,11.841,-12.634
-0.186,0.081,1.412,-5.737,12.024,-11.719
-0.186,0.095,1.354,-0.244,1.221,-9.766
-0.183,0.096,1.283,0.183,0.854,-6.775
-0.170,0.090,1.227,-0.977,-2.808,-5.371
-0.165,0.103,1.213,-4.700,-12.146,-3.723
-0.146,0.093,1.198,-7.507,-16.052,-3.052
-0.132,0.082,1.178,-8.972,-20.630,-3.235
-0.113,0.071,1.157,-9.155,-23.560,-3.662
-0.105,0.070,1.132,-7.141,-23.804,-4.822
-0.098,0.073,1.100,-3.479,-23.621,-5.737
-0.097,0.077,1.057,0.610,-22.827,-6.287
-0.094,0.080,1.011,3.540,-21.912,-6.348
-0.090,0.089,0.978,4.578,-21.057,-5.737
-0.088,0.095,0.959,3.418,-20.325,-4.578
-0.081,0.092,0.943,0.549,-20.752,-2.747
-0.072,0.081,0.937,-2.808,-20.996,-0.977
-0.065,0.068,0.942,-5.127,-20.630,0.427
-0.060,0.063,0.942,-6.226,-20.691,0.916
-0.059,0.063,0.936,-5.615,-20.691,0.671
-0.058,0.068,0.927,-4.272,-20.386,0.244
-0.059,0.074,0.920,-2.380,-19.653,0.488
-0.059,0.073,0.909,0.122,-18.433,0.610
-0.058,0.064,0.898,2.930,-16.296,1.160
-0.058,0.056,0.897,4.700,-14.343,1.587
-0.056,0.048,0.902,5.310,-13.000,1.831
-0.057,0.038,0.907,4.944,-12.268,1.526
-0.056,0.031,0.910,3.906,-12.207,0.671
-0.059,0.033,0.917,2.380,-12.268,-0.854
-0.065,0.041,0.922,0.977,-12.451,-2.258
-0.073,0.054,0.930,-0.122,-12.695,-3.174
-0.085,0.067,0.937,-0.549,-13.000,-3.540
-0.094,0.077,0.937,-0.183,-12.634,-3.357
-0.100,0.078,0.934,0.549,-12.207,-2.930
-0.106,0.079,0.932,1.160,-11.353,-2.686
-0.110,0.085,0.937,2.014,-10.010,-2.319
-0.117,0.090,0.938,2.502,-9.033,-1.770
-0.119,0.093,0.941,2.258,-8.606,-0.854
-0.122,0.092,0.944,1.282,-8.423,-0.244
-0.122,0.090,0.949,0.122,-8.545,-0.183
-0.124,0.094,0.950,-0.488,-8.789,-0.549
-0.125,0.100,0.949,-0.854,-8.972,-0.977
-0.128,0.105,0.944,-1.282,-9.155,-1.099
-0.131,0.110,0.939,-1.587,-9.460,-1.099
-0.133,0.113,0.939,-1.770,-9.277,-0.916
-0.135,0.115,0.940,-1.282,-8.911,-0.427
-0.139,0.113,0.938,0.122,-8.057,0.488
-0.139,0.105,0.929,1.587,-7.141,1.587
-0.139,0.093,0.923,1.953,-6.836,2.258
-0.136,0.083,0.919,1.343,-6.409,2.563
-0.133,0.074,0.922,0.366,-6.165,2.380

1.202,-0.337,1.448,33.752,331.909,105.469
1.228,-0.446,1.724,77.637,307.373,94.116
1.202,-0.608,1.973,126.831,272.217,85.266
1.133,-0.788,2.141,165.833,235.718,80.017
1.032,-0.961,2.236,184.326,203.796,74.707
0.939,-1.067,2.296,176.697,182.312,66.162
0.873,-1.083,2.351,143.433,173.401,54.260
0.839,-0.997,2.394,93.201,174.011,42.236
0.833,-0.877,2.419,42.053,175.232,35.217
0.827,-0.790,2.447,4.639,171.692,34.302
0.809,-0.786,2.518,-16.968,161.133,36.804
0.776,-0.865,2.616,-28.564,144.165,38.696
0.753,-0.948,2.688,-37.048,122.681,36.194
0.728,-0.987,2.708,-44.922,99.731,29.053
0.711,-0.963,2.671,-50.537,77.026,18.127
0.697,-0.894,2.590,-51.514,53.833,6.531
0.691,-0.822,2.500,-47.241,31.006,-2.747
0.676,-0.776,2.419,-40.955,9.827,-8.789
0.661,-0.754,2.363,-35.645,-7.935,-11.963
0.660,-0.754,2.314,-33.142,-24.536,-13.794
0.667,-0.752,2.273,-33.875,-39.673,-15.320
0.670,-0.768,2.229,-36.194,-52.979,-15.320
0.672,-0.788,2.174,-37.903,-65.918,-16.357
0.678,-0.802,2.114,-37.903,-79.224,-19.226
0.689,-0.774,2.053,-36.011,-93.018,-23.804
0.706,-0.734,1.995,-32.898,-107.727,-28.992
0.724,-0.697,1.938,-29.724,-123.230,-34.180
0.731,-0.661,1.843,-27.161,-139.160,-40.161
0.744,-0.634,1.742,-25.879,-152.161,-46.326
0.745,-0.619,1.634,-25.574,-162.415,-51.819
0.749,-0.593,1.531,-24.963,-170.349,-57.922
0.748,-0.564,1.428,-23.926,-175.903,-64.392
0.740,-0.520,1.321,-22.095,-179.565,-70.251
0.732,-0.473,1.240,-19.653,-183.167,-75.073
0.739,-0.421,1.185,-15.564,-187.927,-79.895
0.738,-0.335,1.126,-10.742,-192.078,-84.839
0.726,-0.243,1.071,-4.272,-202.759,-87.891
0.667,-0.174,0.971,6.165,-207.703,-85.999
0.623,-0.145,0.885,5.737,-210.510,-84.167
0.570,-0.106,0.786,2.197,-211.609,-82.397
0.522,-0.068,0.692,-2.869,-211.609,-80.994
0.490,-0.023,0.612,-8.179,-209.290,-79.468
0.447,0.046,0.536,-14.954,-203.796,-77.209
0.403,0.130,0.460,-21.729,-196.228,-74.585
0.264,0.229,0.335,-27.588,-189.453,-70.923
0.395,0.234,0.283,-31.372,-187.805,-65.491
0.291,0.280,0.294,-31.494,-163.391,-57.678
0.235,0.313,0.308,-37.598,-146.851,-42.847
0.163,0.303,0.340,-40.710,-146.179,-35.339
0.112,0.297,0.285,-44.373,-142.822,-28.381
0.039,0.281,0.216,-44.312,-138.306,-21.729
-0.023,0.263,0.159,-39.001,-135.986,-17.029
-0.069,0.240,0.123,-30.579,-132.141,-14.160
-0.114,0.225,0.103,-22.766,-125.732,-12.329
-0.154,0.240,0.084,-17.395,-118.042,-11.780
-0.142,0.319,-0.091,-14.160,-108.215,-10.254
-0.232,0.344,0.042,-12.573,-94.055,-2.991
-0.281,0.250,0.107,-11.536,-95.703,-2.441
-0.319,0.202,0.154,-13.855,-77.454,4.456
-0.325,0.180,0.181,-16.479,-65.247,10.681
-0.359,0.162,0.199,-18.433,-55.237,13.916
-0.389,0.132,0.215,-21.362,-45.410,17.334
-0.425,0.073,0.234,-21.057,-40.344,18.921
-0.452,0.015,0.253,-18.494,-36.438,18.311
-0.474,-0.012,0.265,-14.771,-31.799,15.503
-0.490,-0.019,0.287,-9.949,-26.978,12.085
-0.493,-0.018,0.325,-5.676,-22.034,9.338
-0.498,-0.021,0.370,-3.906,-16.541,8.667
-0.498,-0.024,0.404,-4.944,-11.169,9.399
-0.496,-0.026,0.432,-8.179,-5.798,10.803
-0.500,-0.036,0.469,-11.414,-0.916,12.634
-0.505,-0.050,0.504,-13.245,2.625,14.954
-0.518,-0.072,0.573,-11.475,6.531,15.076
-0.525,-0.086,0.604,-8.423,6.897,14.587
-0.538,-0.100,0.646,-5.493,6.897,13.000
-0.549,-0.112,0.679,-3.723,7.263,10.986
-0.555,-0.113,0.701,-3.418,7.935,9.216
-0.554,-0.110,0.717,-3.479,8.789,7.629
-0.551,-0.110,0.737,-3.662,9.949,7.080
-0.544,-0.108,0.760,-4.211,12.207,7.080
-0.540,-0.103,0.786,-5.554,14.954,7.874
-0.540,-0.100,0.820,-6.592,17.578,9.094
-0.541,-0.110,0.861,-7.080,19.348,10.254
-0.547,-0.122,0.889,-7.690,19.287,10.681
-0.550,-0.122,0.902,-7.874,18.188,9.888
-0.554,-0.121,0.904,-6.470,15.991,8.789
-0.555,-0.127,0.910,-3.418,13.428,7.446
-0.560,-0.132,0.914,-0.305,10.803,6.042
-0.562,-0.133,0.912,2.075,8.423,4.395
-0.566,-0.131,0.908,3.296,6.470,3.052
-0.568,-0.120,0.902,3.052,5.371,1.648
-0.567,-0.106,0.891,2.319,5.249,0.549
-0.560,-0.095,0.889,1.038,5.310,0.305
-0.554,-0.086,0.896,-0.244,5.798,0.549
-0.547,-0.081,0.902,-1.160,6.165,1.099
-0.542,-0.080,0.904,-1.892,5.615,1.404
-0.538,-0.081,0.904,-1.770,4.578,1.587
-0.530,-0.083,0.900,-0.854,3.296,1.526
-0.532,-0.086,0.891,0.061,1.892,1.282
-0.537,-0.084,0.877,0.732,0.671,0.793
-0.542,-0.083,0.871,1.221,-0.183,0.366
-0.543,-0.081,0.867,1.587,-0.671,0.061
-0.538,-0.072,0.865,1.953,-1.099,-0.488
-0.534,-0.061,0.861,2.747,-1.709,0.183
-0.524,-0.063,0.859,3.174,-2.014,1.160
-0.517,-0.066,0.856,1.587,-1.770,1.892
-0.512,-0.074,0.856,-0.183,-1.343,2.808
-0.515,-0.085,0.859,-1.709,-1.160,3.296
-0.515,-0.089,0.851,-2.319,-1.343,2.869
-0.520,-0.088,0.842,-1.892,-1.770,1.892
-0.521,-0.083,0.834,-0.732,-2.380,1.099
-0.523,-0.075,0.825,0.549,-3.296,0.000
-0.524,-0.066,0.815,1.709,-3.845,-0.488
-0.527,-0.058,0.806,2.258,-4.211,0.122
-0.534,-0.062,0.785,2.258,-3.906,0.549
-0.535,-0.073,0.788,1.953,-3.174,1.038
-0.532,-0.079,0.793,1.099,-2.258,0.977
-0.531,-0.078,0.795,-0.122,-1.465,0.488
-0.529,-0.071,0.800,-0.793,-1.038,-0.305
-0.433,0.192,2.114,10.864,-8.484,24.597
-0.439,0.179,2.200,19.897,-18.250,31.433
-0.428,0.129,2.231,30.457,-29.907,37.476
-0.393,0.064,2.226,39.490,-43.884,41.321
-0.351,0.003,2.206,44.739,-59.570,41.992
-0.306,-0.040,2.193,46.509,-75.745,40.161
-0.265,-0.075,2.172,46.631,-91.736,36.499
-0.230,-0.104,2.132,46.326,-107.666,31.250
-0.201,-0.121,2.064,46.448,-123.779,23.987
-0.174,-0.126,1.983,46.997,-139.038,15.320
-0.152,-0.121,1.878,46.875,-153.870,6.348
-0.127,-0.105,1.754,45.471,-168.152,-2.258
-0.104,-0.078,1.618,42.969,-181.641,-10.559
-0.096,-0.041,1.490,39.917,-192.566,-18.005
-0.090,-0.006,1.355,38.025,-200.989,-22.644
-0.073,0.022,1.222,36.987,-207.092,-24.475
-0.054,0.039,1.091,35.767,-211.609,-24.658
-0.028,0.048,0.957,34.302,-214.783,-23.865
0.004,0.046,0.814,32.227,-216.675,-23.071
0.032,0.038,0.671,28.748,-217.957,-23.071
0.058,0.035,0.531,22.766,-219.421,-24.536
0.078,0.041,0.397,14.587,-221.252,-26.855
0.110,0.048,0.255,5.249,-222.900,-29.358
0.118,0.071,0.148,-4.578,-225.342,-31.006
0.160,0.068,0.005,-13.306,-225.586,-31.555
0.187,0.058,-0.153,-21.606,-222.046,-32.410
0.216,0.050,-0.324,-29.907,-221.680,-31.128
0.242,0.036,-0.490,-38.086,-220.764,-28.687
0.272,0.015,-0.654,-44.312,-216.675,-26.001
0.309,-0.018,-0.838,-47.607,-207.031,-23.804
0.335,-0.057,-1.019,-47.852,-190.613,-21.851
0.358,-0.096,-1.179,-45.715,-168.518,-18.860
0.372,-0.140,-1.305,-40.710,-140.869,-15.747
0.363,-0.181,-1.376,-34.241,-107.117,-13.733
0.368,-0.222,-1.403,-26.306,-67.566,-11.963
0.346,-0.265,-1.385,-17.944,-25.635,-11.719
0.319,-0.294,-1.323,-11.414,15.503,-14.832
0.290,-0.305,-1.227,-7.446,54.749,-21.851
0.243,-0.284,-1.108,-6.653,89.478,-32.410
0.198,-0.217,-0.959,-8.911,117.920,-43.945
0.138,-0.102,-0.757,-12.268,141.479,-54.443
0.054,0.044,-0.525,-13.000,161.682,-61.768
-0.006,0.188,-0.308,-9.216,177.979,-61.523
-0.082,0.286,-0.133,-2.930,190.247,-53.650
-0.125,0.344,0.002,4.944,200.562,-40.771
-0.144,0.368,0.136,14.404,212.036,-25.696
-0.147,0.357,0.249,25.757,226.929,-10.681
-0.128,0.331,0.350,37.537,244.263,1.404
-0.073,0.294,0.458,46.814,263.794,10.254
-0.012,0.262,0.647,46.204,283.936,15.564
0.035,0.234,0.937,31.250,299.316,16.907
0.036,0.221,1.296,8.240,306.152,16.052
0.068,0.199,1.606,-14.526,304.810,15.991
0.062,0.219,1.909,-34.241,290.161,12.085
-0.001,0.268,2.174,-49.255,275.452,9.888
-0.027,0.269,2.344,-51.819,250.122,11.475
-0.095,0.194,2.371,-44.556,214.600,10.742
-0.129,0.100,2.214,-31.311,186.279,8.057
-0.156,0.057,2.041,-16.907,168.884,2.014
-0.186,0.072,1.906,-2.808,160.400,-5.615
-0.247,0.097,1.821,13.184,147.644,-9.338
-0.281,0.166,1.747,28.503,153.198,-8.057
-0.264,0.195,1.738,45.166,165.344,-4.517
-0.279,0.198,1.792,52.795,158.142,1.038
-0.243,0.156,1.831,45.837,143.005,10.437
-0.210,0.105,1.875,24.963,116.943,15.991
-0.216,0.067,1.858,-3.723,84.961,16.296
-0.217,0.075,1.891,-30.884,66.406,13.184
-0.235,0.080,1.893,-48.889,18.616,12.268
-0.273,0.062,1.821,-58.411,2.075,5.066
-0.258,0.016,1.651,-50.110,17.395,-7.080
-0.287,0.051,1.554,-35.522,23.804,-13.733
-0.288,0.088,1.490,-14.771,32.532,-13.977
-0.298,0.114,1.459,4.578,38.025,-12.695
-0.281,0.136,1.440,14.526,37.292,-8.423
-0.263,0.146,1.415,14.954,32.104,-4.028
-0.240,0.147,1.390,8.362,21.301,0.610
-0.213,0.144,1.383,-2.075,7.141,4.456
-0.187,0.137,1.382,-12.756,-5.737,5.981
-0.167,0.124,1.369,-20.508,-16.174,5.554
-0.154,0.110,1.317,-23.437,-23.804,4.517
-0.152,0.099,1.253,-21.729,-27.588,2.808
-0.151,0.092,1.197,-16.418,-27.100,1.465
-0.143,0.089,1.143,-8.850,-24.414,0.671
-0.133,0.089,1.096,-1.648,-20.691,0.122
-0.125,0.090,1.064,3.235,-17.273,0.000
-0.112,0.078,1.051,4.700,-17.822,-0.366
-0.112,0.094,1.014,2.747,-19.531,-0.671
-0.091,0.099,0.990,-0.610,-22.278,0.427
-0.097,0.108,0.965,-4.211,-25.330,-0.122
-0.084,0.113,0.937,-7.019,-25.330,0.488
-0.083,0.118,0.926,-7.690,-26.245,1.099
-0.082,0.115,0.923,-5.859,-25.757,2.136
-0.082,0.106,0.914,-2.136,-23.804,3.235
-0.076,0.094,0.906,2.075,-21.729,4.211
-0.075,0.079,0.895,5.737,-19.348,4.333
-0.069,0.068,0.886,8.423,-17.090,3.662
-0.064,0.062,0.886,9.033,-15.564,2.625
-0.063,0.061,0.890,7.568,-14.954,1.221
-0.064,0.066,0.894,5.249,-14.526,0.000
-0.069,0.072,0.896,2.991,-14.771,-0.916
-0.076,0.079,0.901,1.221,-15.137,-1.465
-0.082,0.086,0.900,0.732,-14.587,-1.587
-0.090,0.089,0.896,1.709,-13.428,-1.709
-0.097,0.092,0.898,3.357,-11.841,-1.221
-0.105,0.091,0.901,5.066,-10.010,-0.488
-0.111,0.086,0.904,6.409,-8.484,0.061
-0.116,0.085,0.908,7.690,-7.385,0.610
-0.117,0.083,0.907,7.751,-7.019,0.916
-0.118,0.079,0.908,6.165,-7.446,0.977
-0.125,0.075,0.907,4.028,-7.996,0.549
-0.132,0.079,0.906,2.075,-8.484,-0.122
-0.138,0.086,0.912,1.038,-8.240,-0.488
-0.145,0.090,0.911,1.160,-7.507,-0.427
-0.150,0.087,0.907,2.258,-6.470,0.122
-0.149,0.086,0.906,3.235,-5.432,0.671
-0.146,0.083,0.908,3.296,-4.639,1.160
-0.146,0.081,0.911,2.625,-4.150,1.404
-0.142,0.079,0.916,1.465,-4.150,1.343

1.088,-0.498,1.362,21.729,308.289,81.665
1.103,-0.590,1.556,64.636,283.752,63.232
1.106,-0.653,1.729,102.661,256.531,46.448
1.099,-0.695,1.879,128.540,232.239,34.912
1.080,-0.714,2.004,136.902,215.088,28.748
1.066,-0.745,2.133,125.916,205.811,27.954
1.049,-0.762,2.267,97.839,202.698,29.602
1.022,-0.751,2.397,58.044,202.942,31.067
0.988,-0.741,2.491,15.991,201.111,31.372
0.973,-0.696,2.551,-19.348,192.688,29.175
0.939,-0.684,2.559,-42.419,178.833,28.442
0.891,-0.722,2.604,-50.537,160.095,25.452
0.863,-0.757,2.669,-46.265,130.310,18.616
0.834,-0.763,2.668,-34.729,97.656,10.864
0.804,-0.733,2.649,-22.034,67.932,3.052
0.788,-0.698,2.619,-10.254,37.415,-4.150
0.773,-0.671,2.590,-3.357,11.597,-9.644
0.756,-0.650,2.531,-4.028,-8.118,-11.536
0.732,-0.651,2.466,-10.071,-23.682,-10.315
0.717,-0.674,2.412,-19.775,-36.255,-7.874
0.703,-0.681,2.360,-30.884,-46.082,-6.836
0.693,-0.665,2.297,-39.856,-55.481,-7.629
0.694,-0.638,2.207,-43.762,-67.261,-9.521
0.699,-0.614,2.122,-40.588,-81.360,-12.207
0.705,-0.597,2.048,-31.433,-97.839,-15.259
0.716,-0.587,1.965,-19.531,-114.258,-19.348
0.723,-0.578,1.880,-6.653,-129.333,-24.902
0.729,-0.566,1.801,4.822,-143.555,-31.799
0.735,-0.547,1.716,12.878,-156.189,-39.551
0.749,-0.529,1.621,15.808,-166.626,-46.570
0.757,-0.526,1.528,14.587,-174.194,-51.819
0.758,-0.513,1.427,9.949,-178.772,-56.152
0.756,-0.479,1.320,4.333,-180.786,-60.486
0.747,-0.429,1.221,0.366,-181.702,-63.904
0.731,-0.391,1.135,-1.526,-181.885,-65.491
0.703,-0.354,1.061,-1.404,-181.946,-65.491
0.664,-0.317,1.006,0.671,-182.861,-65.796
0.626,-0.266,0.945,3.784,-185.608,-67.444
0.591,-0.202,0.872,6.592,-188.416,-69.031
0.556,-0.141,0.812,8.606,-190.674,-70.190
0.529,-0.088,0.766,8.972,-191.833,-70.557
0.508,-0.040,0.737,7.141,-191.711,-70.129
0.473,0.006,0.709,2.869,-190.491,-68.481
0.419,0.056,0.660,-3.052,-188.049,-64.941
0.372,0.104,0.598,-9.460,-185.242,-59.998
0.329,0.130,0.559,-15.076,-181.458,-55.176
0.306,0.142,0.698,-20.386,-179.382,-49.683
0.267,0.172,0.427,-24.780,-177.795,-44.128
0.187,0.225,0.385,-28.687,-157.227,-36.133
0.148,0.238,0.368,-34.973,-161.255,-25.330
0.120,0.202,0.378,-35.522,-162.048,-21.545
0.072,0.185,0.339,-39.246,-155.090,-16.541
0.014,0.161,0.298,-40.588,-149.719,-13.428
-0.025,0.169,0.247,-39.001,-146.118,-11.414
-0.127,0.197,0.143,-25.818,-133.789,-9.827
-0.167,0.181,0.138,-17.944,-125.671,-7.812
-0.206,0.161,0.160,-12.878,-116.638,-5.127
-0.245,0.155,0.177,-11.597,-107.544,-2.808
-0.286,0.158,0.181,-13.062,-98.938,-0.671
-0.325,0.148,0.191,-15.686,-91.797,2.075
-0.354,0.119,0.194,-17.578,-86.060,4.578
-0.377,0.078,0.211,-18.982,-80.383,5.737
-0.402,0.041,0.229,-19.836,-73.730,4.944
-0.422,0.060,0.220,-20.264,-65.796,3.845
-0.443,0.064,0.222,-18.005,-56.519,5.066
-0.463,0.046,0.222,-12.878,-52.002,5.005
-0.484,0.006,0.243,-6.409,-45.898,4.333
-0.495,-0.013,0.249,-2.258,-39.856,4.028
-0.510,-0.026,0.277,0.122,-31.616,5.127
-0.515,-0.050,0.323,0.549,-25.085,4.700
-0.520,-0.063,0.360,-1.343,-18.494,4.944
-0.524,-0.073,0.398,-4.822,-11.902,6.104
-0.533,-0.089,0.437,-7.202,-6.958,7.385
-0.547,-0.104,0.465,-8.911,-3.357,8.667
-0.563,-0.110,0.489,-10.315,-0.854,9.521
-0.581,-0.115,0.513,-10.742,1.526,10.681
-0.591,-0.125,0.542,-10.681,3.662,11.292
-0.597,-0.138,0.568,-10.742,5.371,11.230
-0.597,-0.150,0.594,-10.376,7.385,10.620
-0.600,-0.166,0.625,-9.644,9.338,10.071
-0.601,-0.179,0.659,-8.606,11.108,6.836
-0.598,-0.189,0.723,-6.592,12.878,4.578
-0.593,-0.182,0.753,-5.554,13.428,2.319
-0.584,-0.166,0.781,-4.822,13.916,0.183
-0.579,-0.142,0.813,-4.761,14.709,-0.977
-0.575,-0.118,0.839,-5.066,14.893,-1.038
-0.571,-0.104,0.850,-4.822,14.099,-0.549
-0.569,-0.100,0.860,-3.906,12.695,0.427
-0.570,-0.108,0.870,-3.540,11.475,1.343
-0.569,-0.120,0.883,-3.967,10.925,2.136
-0.571,-0.130,0.892,-5.737,10.864,2.563
-0.573,-0.129,0.891,-7.446,10.559,2.258
-0.573,-0.124,0.889,-8.728,9.888,1.709
-0.574,-0.120,0.883,-8.545,9.155,0.977
-0.573,-0.112,0.875,-7.385,7.874,0.183
-0.574,-0.101,0.871,-4.456,5.859,-0.793
-0.570,-0.098,0.872,-0.305,3.723,-1.160
-0.570,-0.101,0.874,3.052,1.770,-1.160
-0.570,-0.100,0.874,4.456,0.610,-1.221
-0.567,-0.091,0.863,3.906,0.488,-1.282
-0.565,-0.082,0.855,2.075,0.610,-1.160
-0.562,-0.074,0.851,0.549,1.099,-0.732
-0.559,-0.067,0.849,-0.427,1.465,-0.366
-0.561,-0.064,0.843,-0.427,1.221,0.366
-0.565,-0.070,0.835,0.183,0.488,1.221
-0.568,-0.084,0.824,0.854,-0.122,1.831
-0.571,-0.097,0.817,1.099,-0.305,2.197
-0.573,-0.106,0.814,0.977,-0.366,2.136
-0.572,-0.105,0.809,0.854,-0.427,1.526
-0.567,-0.099,0.807,1.221,-0.305,0.488
-0.563,-0.093,0.812,1.648,-0.488,-0.183
-0.558,-0.087,0.815,2.502,-0.793,-0.366
-0.555,-0.088,0.809,2.380,-1.404,-0.061
-0.555,-0.091,0.808,2.075,-1.465,0.000
-0.554,-0.089,0.808,1.221,-1.404,-0.183
-0.549,-0.081,0.806,0.366,-1.038,-0.366
-0.545,-0.070,0.802,-0.122,-0.793,-0.427
-0.543,-0.065,0.801,-0.610,-0.793,-0.305
-0.540,-0.061,0.797,-0.366,-1.282,-0.122
-0.434,0.152,2.073,11.108,-1.709,26.184
-0.437,0.128,2.172,15.015,-9.277,32.593
-0.427,0.091,2.236,23.132,-16.968,38.452
-0.410,0.042,2.260,34.912,-24.475,42.786
-0.377,-0.009,2.256,47.485,-32.837,44.617
-0.324,-0.055,2.245,55.969,-43.457,43.945
-0.263,-0.078,2.232,57.556,-58.533,40.161
-0.225,-0.100,2.215,52.063,-78.125,33.081
-0.179,-0.094,2.208,43.152,-101.746,26.306
-0.142,-0.101,2.167,36.133,-124.695,20.020
-0.094,-0.093,2.104,31.616,-145.752,12.695
-0.051,-0.073,2.024,30.640,-165.161,5.493
-0.015,-0.057,1.913,33.752,-181.335,-1.465
0.016,-0.040,1.758,39.490,-196.289,-8.240
0.054,-0.027,1.562,45.166,-209.778,-14.587
0.088,-0.013,1.357,47.668,-221.008,-20.264
0.120,-0.000,1.160,46.631,-229.553,-24.719
0.151,0.011,0.972,42.908,-235.901,-28.381
0.174,0.025,0.790,36.316,-241.333,-31.250
0.197,0.039,0.619,26.611,-246.338,-33.691
0.214,0.059,0.462,14.954,-250.610,-35.217
0.234,0.067,0.299,2.563,-254.578,-35.461
0.265,0.088,0.117,-9.949,-258.362,-35.217
0.314,0.081,-0.112,-22.766,-261.902,-33.752
0.342,0.064,-0.327,-36.316,-259.155,-34.180
0.362,0.057,-0.539,-49.377,-256.531,-32.227
0.354,0.034,-0.726,-62.012,-252.747,-27.466
0.381,-0.001,-0.907,-72.449,-244.690,-21.301
0.380,-0.059,-1.061,-77.759,-229.187,-16.296
0.380,-0.127,-1.185,-77.087,-207.153,-10.742
0.399,-0.195,-1.270,-70.068,-177.673,-5.981
0.416,-0.253,-1.317,-57.251,-143.005,-4.150
0.421,-0.299,-1.328,-40.588,-105.835,-4.395
0.401,-0.340,-1.317,-21.729,-65.857,-7.202
0.368,-0.361,-1.284,-2.991,-25.208,-13.123
0.325,-0.360,-1.230,12.817,13.916,-22.278
0.267,-0.343,-1.150,22.949,50.598,-33.325
0.179,-0.286,-1.026,25.330,81.116,-44.556
0.107,-0.181,-0.859,23.010,105.652,-53.467
0.019,-0.072,-0.680,21.301,127.319,-58.838
-0.054,0.031,-0.495,21.912,147.278,-58.472
-0.107,0.134,-0.285,23.682,164.429,-52.307
-0.156,0.225,-0.059,28.198,180.725,-41.626
-0.194,0.287,0.154,37.537,197.266,-27.710
-0.208,0.306,0.330,52.124,214.539,-11.780
-0.207,0.292,0.465,67.932,230.103,3.296
-0.207,0.251,0.563,77.576,241.699,15.564
-0.185,0.205,0.643,75.867,247.864,23.193
-0.180,0.154,0.723,60.120,249.451,25.818
-0.149,0.152,0.873,35.217,245.972,26.611
-0.116,0.160,1.056,11.536,244.995,27.771
-0.120,0.158,1.221,-6.104,249.207,27.710
-0.133,0.089,1.453,-19.775,250.000,26.733
-0.175,0.123,1.603,-32.715,242.981,22.766
-0.184,0.101,1.697,-42.175,236.084,24.231
-0.215,0.058,1.735,-45.776,209.900,18.372
-0.230,0.029,1.736,-47.424,183.533,10.254
-0.228,0.055,1.677,-44.067,167.969,0.488
-0.258,0.125,1.691,-34.851,156.738,-7.263
-0.261,0.202,1.730,-18.433,150.513,-10.742
-0.318,0.234,1.841,2.808,141.357,-8.362
-0.332,0.283,1.848,18.311,136.047,-1.160
-0.312,0.223,1.815,21.912,142.822,6.287
-0.303,0.156,1.814,9.827,130.310,9.216
-0.305,0.112,1.853,-13.123,108.887,11.719
-0.316,0.096,1.883,-35.034,85.022,11.169
-0.324,0.083,1.871,-48.523,60.608,9.155
-0.322,0.078,1.727,-52.002,43.945,7.019
-0.342,0.079,1.712,-47.607,45.349,4.761
-0.352,0.111,1.683,-36.865,18.677,6.226
-0.361,0.077,1.609,-25.940,25.024,5.005
-0.317,0.040,1.487,-11.475,46.509,-1.770
-0.309,0.085,1.448,-5.493,49.561,-4.578
-0.291,0.106,1.424,-1.343,50.842,-4.333
-0.275,0.127,1.395,-1.160,45.349,-4.761
-0.257,0.142,1.388,-5.432,33.203,-3.235
-0.258,0.164,1.343,-11.658,21.240,-0.732
-0.246,0.167,1.302,-16.235,13.611,2.930
-0.244,0.172,1.280,-17.883,4.822,5.615
-0.226,0.160,1.279,-16.296,-0.549,8.728
-0.212,0.134,1.271,-12.329,-1.526,9.888
-0.189,0.117,1.258,-7.385,-1.465,10.315
-0.163,0.098,1.243,-2.563,-1.099,10.437
-0.144,0.073,1.222,1.038,-1.038,9.827
-0.125,0.062,1.189,2.197,-3.052,8.545
-0.117,0.055,1.153,1.587,-5.981,6.958
-0.113,0.057,1.117,-0.061,-8.911,5.127
-0.110,0.063,1.088,-1.831,-12.024,4.150
-0.109,0.067,1.064,-2.625,-14.526,3.784
-0.109,0.074,1.042,-2.197,-16.541,3.662
-0.109,0.077,1.027,-0.793,-17.517,3.967
-0.108,0.073,1.013,1.099,-17.883,4.578
-0.105,0.067,0.998,2.563,-18.433,4.944
-0.099,0.063,0.978,3.235,-18.921,5.188
-0.097,0.059,0.965,3.113,-19.409,4.578
-0.098,0.057,0.949,2.502,-19.653,3.784
-0.098,0.054,0.934,2.319,-19.531,2.991
-0.100,0.052,0.924,2.319,-18.860,2.258
-0.104,0.052,0.918,2.930,-17.944,1.831
-0.110,0.048,0.912,4.700,-16.479,1.343
-0.114,0.046,0.909,6.470,-14.465,0.854
-0.116,0.044,0.906,7.080,-13.306,0.488
-0.119,0.045,0.909,6.470,-12.634,-0.244
-0.121,0.048,0.917,5.188,-12.146,-1.038
-0.126,0.053,0.923,3.845,-11.780,-1.770
-0.132,0.060,0.924,2.808,-12.024,-2.502
-0.137,0.065,0.919,1.587,-12.451,-2.869
-0.144,0.072,0.919,0.488,-12.695,-3.052
-0.150,0.079,0.916,0.305,-12.634,-3.113
-0.156,0.081,0.911,0.977,-11.841,-3.113
-0.161,0.086,0.911,1.892,-10.986,-3.052
-0.163,0.090,0.914,2.380,-9.949,-2.808
-0.168,0.090,0.918,3.174,-8.301,-2.258
-0.167,0.089,0.922,4.028,-7.263,-1.709
-0.166,0.087,0.927,4.211,-6.348,-0.793
-0.161,0.085,0.932,3.479,-6.409,0.061
-0.158,0.083,0.941,2.258,-6.775,0.732
-0.157,0.081,0.945,1.465,-7.324,1.282
-0.157,0.076,0.941,1.465,-7.690,1.709

