aX,aY,aZ,gX,gY,gZ
-1.340,-2.867,3.347,181.885,-95.703,-67.932
0.277,-1.359,-1.335,-30.396,88.806,-87.708
-0.578,-1.588,0.490,52.307,-86.304,-49.133
-0.696,-0.916,0.049,70.618,-93.506,-14.771
-0.670,-0.164,-0.279,43.823,-62.439,22.156
-0.702,-0.878,-0.057,22.095,-2.625,35.828
-0.311,-1.114,-0.032,-13.367,17.151,12.756
-0.151,-1.225,0.294,-21.545,13.916,3.845
0.014,-1.098,0.276,-12.573,1.343,1.160
-0.046,-1.062,0.185,7.690,-2.686,-6.958
-0.092,-0.979,0.153,15.930,0.977,-12.512
-0.112,-0.959,-0.020,9.949,9.644,-16.602
-0.131,-0.956,-0.102,1.221,9.583,-18.616
-0.137,-0.962,-0.147,-5.493,3.662,-17.395
-0.142,-0.963,-0.171,-9.583,-4.089,-12.695
-0.153,-0.971,-0.163,-11.230,-11.292,-7.446
-0.159,-0.979,-0.110,-11.230,-18.250,-3.418
-0.176,-1.010,-0.040,-9.033,-21.606,-1.343
-0.183,-1.027,0.017,-3.113,-20.386,0.061
-0.184,-1.026,0.058,1.404,-13.611,0.183
-0.176,-1.020,0.056,6.042,-3.967,-0.793
-0.170,-1.022,0.028,11.475,2.441,-2.319
-0.169,-1.005,0.008,14.893,6.836,-3.418
-0.173,-0.998,-0.011,15.076,9.705,-4.700
-0.174,-0.985,-0.027,13.489,10.803,-5.676
-0.172,-0.969,-0.046,10.376,10.376,-5.676
-0.178,-0.962,-0.055,7.019,8.301,-5.005
-0.186,-0.956,-0.051,5.005,6.104,-4.150
-0.194,-0.956,-0.052,3.601,5.127,-3.662
-0.195,-0.948,-0.040,1.526,4.944,-3.296
-0.199,-0.943,-0.024,-0.427,4.700,-2.930
-0.205,-0.935,-0.005,-1.587,4.272,-2.563
-0.205,-0.929,0.003,-2.014,4.456,-1.953
-0.205,-0.927,0.001,-2.014,4.517,-1.404
-0.199,-0.929,-0.011,-2.136,4.089,-0.183
-0.195,-0.937,-0.021,-2.380,3.662,1.221
-0.191,-0.955,-0.034,-2.502,3.723,2.869
-0.187,-0.978,-0.044,-2.747,3.967,4.028
-0.187,-0.991,-0.036,-2.869,4.517,5.188
-0.184,-1.000,-0.024,-2.991,4.883,5.493
-0.185,-1.003,-0.005,-3.113,5.005,5.371
-0.187,-1.010,0.002,-2.441,4.944,4.761
-0.190,-1.019,0.002,-1.282,4.395,3.723
-0.190,-1.023,-0.004,-0.061,3.662,2.563
-0.192,-1.022,-0.024,0.244,2.441,1.343
-0.197,-1.026,-0.036,-0.244,1.160,0.183
-0.192,-1.013,-0.043,-1.038,0.061,-0.488
-0.194,-1.009,-0.046,-1.587,-0.427,-0.854
-0.191,-1.000,-0.037,-2.380,-0.732,-0.671
-0.192,-0.992,-0.029,-3.418,-0.732,-0.183
-0.188,-0.986,-0.029,-3.967,-0.427,0.244
-0.190,-0.984,-0.024,-3.784,-0.671,0.854
-0.197,-0.988,-0.014,-3.540,-0.854,1.465
-0.200,-0.991,-0.009,-3.357,-0.671,1.831
-0.203,-1.000,-0.015,-3.540,-0.122,1.648
-0.200,-1.000,-0.017,-4.944,0.916,1.160
-0.199,-1.000,-0.021,-5.981,1.587,0.427
-0.197,-0.997,-0.028,-6.287,2.014,0.122
-0.194,-0.995,-0.031,-5.859,2.014,0.427
-0.191,-0.991,-0.026,-5.493,1.648,0.854
-0.190,-0.989,-0.019,-4.944,1.099,1.038
-0.190,-0.991,-0.024,-4.578,0.793,1.404
-0.187,-0.988,-0.024,-4.272,0.488,1.709
-0.186,-0.987,-0.018,-3.784,-0.122,1.831
-0.188,-0.993,-0.016,-2.747,-0.366,2.075
-0.188,-0.999,-0.018,-1.831,0.183,2.197
-0.190,-1.000,-0.013,-1.465,0.671,1.892
-0.191,-1.004,-0.011,-0.916,1.221,1.526
-0.188,-1.007,-0.006,0.061,1.587,1.160
-0.187,-1.010,-0.005,0.977,1.587,0.793
-0.186,-1.011,-0.009,1.282,1.648,0.305
-0.186,-1.008,-0.012,1.282,1.282,-0.061
-0.184,-1.005,-0.017,0.916,1.160,-0.488
-0.184,-1.001,-0.019,0.305,1.160,-0.610
-0.191,-0.996,-0.016,0.488,0.793,-0.366
-0.192,-0.994,-0.016,0.854,0.610,-0.061
-0.193,-0.999,-0.015,0.793,0.488,0.488
-0.193,-1.001,-0.007,0.427,0.244,0.977
-0.193,-1.004,-0.004,0.122,-0.061,0.977
-0.192,-1.002,-0.002,-0.244,-0.488,1.038
-0.193,-1.003,-0.002,-0.488,-0.610,0.732
-0.193,-1.000,-0.004,-0.427,-0.549,0.427
-0.190,-1.000,-0.008,-0.244,0.000,0.366
-0.187,-0.999,-0.007,-0.549,0.366,0.366
-0.185,-0.997,-0.003,-0.122,0.427,0.366
-0.182,-0.998,-0.005,0.427,0.427,0.671
-0.182,-1.001,-0.009,0.916,0.244,1.038
-0.181,-1.001,-0.014,1.099,-0.061,1.099
-0.184,-1.001,-0.020,0.671,-0.122,1.221
-0.184,-1.002,-0.024,-0.061,-0.122,1.038
-0.187,-1.001,-0.023,-0.061,-0.244,0.854
-0.188,-1.001,-0.024,0.183,-0.305,0.732
-0.189,-1.001,-0.020,0.610,-0.122,0.610
-0.186,-1.002,-0.014,0.916,-0.122,0.549
-0.187,-1.003,-0.006,1.038,-0.366,0.610
-0.187,-1.002,-0.010,0.732,0.061,0.305
-0.185,-1.001,-0.018,0.000,0.488,-0.061
-0.184,-1.001,-0.026,-0.427,0.488,-0.061
-0.183,-1.000,-0.034,0.122,0.244,0.305
-0.183,-1.001,-0.036,0.916,0.061,0.732
-0.184,-1.003,-0.033,1.282,0.183,0.854
-0.184,-1.004,-0.027,0.977,0.305,0.793
-0.186,-1.005,-0.018,0.793,0.610,0.488
-0.186,-1.006,-0.013,0.732,0.916,0.366
-0.184,-1.006,-0.010,0.610,0.977,0.244
-0.184,-1.008,-0.008,0.488,0.916,0.122
-0.187,-1.006,-0.010,0.122,0.732,-0.061
-0.185,-1.002,-0.012,-0.305,0.671,-0.244
-0.188,-0.999,-0.014,-1.038,0.244,-0.366
-0.189,-0.995,-0.012,-1.465,-0.305,-0.610
-0.191,-0.993,-0.015,-1.282,-0.488,-0.366
-0.192,-0.995,-0.014,-1.099,-0.793,0.000
-0.192,-1.000,-0.011,-0.854,-0.854,0.427
-0.190,-1.001,-0.009,-0.549,-0.854,0.610
-0.188,-1.004,-0.011,-0.305,-0.793,0.549
-0.184,-1.002,-0.013,-0.732,-0.549,0.366
-0.181,-1.001,-0.015,-1.038,-0.549,0.122
-0.180,-1.001,-0.014,-0.977,-0.366,-0.061
-0.179,-0.987,-0.025,-0.916,-0.061,-0.244

0.056,-1.650,-4.000,56.396,378.418,-52.063
0.744,-1.520,-0.618,181.702,57.495,-138.306
-0.229,-1.097,0.772,3.052,-145.264,-81.116
-0.543,-0.468,0.089,51.331,-46.082,-12.146
-1.391,-0.484,-0.184,65.430,27.466,48.462
-0.625,-0.995,-0.419,8.240,10.010,39.856
-0.166,-0.949,-0.104,-36.621,-18.494,21.484
0.055,-0.990,-0.114,-36.560,-15.381,0.366
0.042,-1.132,-0.054,-23.132,0.549,-26.184
-0.099,-1.045,0.079,-9.949,8.728,-27.832
-0.108,-0.881,0.027,-7.874,16.907,-18.066
-0.106,-0.920,-0.039,-4.028,19.409,-12.085
-0.131,-1.028,-0.045,-2.014,16.907,-9.460
-0.156,-1.044,-0.156,-5.310,16.479,-3.845
-0.167,-1.024,-0.214,-9.277,14.404,1.526
-0.159,-1.037,-0.244,-12.451,10.010,4.883
-0.149,-1.036,-0.229,-13.245,3.296,7.019
-0.151,-1.058,-0.160,-9.827,-6.165,7.446
-0.147,-1.032,-0.057,-5.310,-12.146,6.714
-0.171,-1.064,0.016,3.540,-13.733,4.272
-0.170,-1.058,0.040,11.230,-11.292,1.526
-0.159,-1.064,-0.005,11.108,-8.240,-1.953
-0.150,-1.048,-0.024,10.193,-7.141,-4.211
-0.150,-1.022,-0.053,9.033,-7.080,-5.798
-0.150,-0.992,-0.088,7.996,-6.897,-6.714
-0.152,-0.970,-0.104,6.836,-6.409,-6.714
-0.149,-0.956,-0.115,5.432,-5.554,-6.165
-0.150,-0.952,-0.112,5.310,-4.517,-5.798
-0.155,-0.954,-0.096,5.676,-3.784,-5.249
-0.162,-0.953,-0.078,5.615,-2.869,-4.700
-0.167,-0.949,-0.068,4.700,-1.587,-4.089
-0.171,-0.952,-0.063,3.235,-0.671,-3.235
-0.173,-0.954,-0.063,1.953,0.061,-1.831
-0.173,-0.963,-0.067,0.366,0.610,0.000
-0.173,-0.968,-0.080,-1.160,0.671,1.892
-0.174,-0.990,-0.097,-2.197,-0.366,3.296
-0.174,-0.999,-0.100,-3.052,-1.038,4.333
-0.170,-1.006,-0.117,-4.089,-0.977,5.127
-0.165,-1.016,-0.117,-3.601,-1.892,4.944
-0.167,-1.018,-0.100,-1.953,-2.747,4.639
-0.170,-1.016,-0.090,-0.732,-2.563,3.479
-0.169,-1.011,-0.078,-0.183,-2.136,1.953
-0.170,-1.003,-0.076,0.305,-1.831,0.305
-0.166,-0.999,-0.082,0.549,-1.526,-0.610
-0.173,-0.997,-0.093,0.671,-1.404,-1.099
-0.172,-0.993,-0.087,0.671,-2.014,-1.221
-0.178,-0.993,-0.090,0.671,-2.380,-0.793
-0.175,-0.994,-0.104,-0.183,-2.136,-0.916
-0.172,-0.990,-0.108,-0.793,-2.258,-0.610
-0.169,-0.990,-0.116,-1.099,-2.319,-0.061
-0.168,-0.993,-0.117,-1.160,-2.197,0.488
-0.172,-0.999,-0.109,-0.793,-2.380,0.854
-0.171,-1.001,-0.104,-0.793,-2.502,1.282
-0.169,-1.000,-0.100,-0.916,-2.319,1.404
-0.167,-1.000,-0.094,-0.916,-2.197,1.221
-0.165,-1.000,-0.098,-0.793,-2.136,0.854
-0.162,-1.002,-0.099,-0.549,-1.892,0.854
-0.163,-1.011,-0.091,-0.671,-1.709,0.671
-0.160,-1.010,-0.107,-1.282,-1.160,0.305
-0.160,-1.014,-0.108,-1.343,-1.038,0.061
-0.159,-1.014,-0.112,-1.343,-1.038,-0.366
-0.158,-1.012,-0.109,-1.221,-1.221,-0.916
-0.157,-1.005,-0.106,-0.732,-1.709,-1.221
-0.159,-1.004,-0.107,0.000,-2.197,-1.160
-0.166,-1.004,-0.100,0.305,-2.380,-1.282
-0.170,-1.000,-0.098,-0.183,-2.197,-1.343
-0.170,-0.998,-0.096,-0.549,-1.587,-1.404
-0.170,-0.997,-0.095,-1.038,-0.854,-1.282
-0.173,-0.997,-0.093,-0.977,-0.061,-1.160
-0.176,-0.997,-0.094,-0.671,0.305,-0.854
-0.175,-1.000,-0.098,-0.305,0.549,-0.977
-0.171,-0.997,-0.100,-0.366,0.732,-1.221
-0.169,-0.995,-0.102,-0.122,0.671,-1.160
-0.167,-0.995,-0.101,0.366,0.488,-1.160
-0.168,-0.994,-0.099,0.854,0.549,-0.854
-0.168,-0.996,-0.096,1.282,0.427,-0.793
-0.168,-0.999,-0.092,1.770,0.427,-0.671
-0.170,-0.999,-0.086,1.709,0.244,-0.549
-0.170,-1.000,-0.085,1.648,0.305,-0.366
-0.171,-1.001,-0.091,1.465,0.610,-0.244
-0.170,-1.000,-0.097,1.282,0.610,-0.183
-0.170,-1.001,-0.099,1.160,0.488,-0.244
-0.170,-1.004,-0.102,0.916,0.366,-0.305
-0.173,-1.006,-0.104,0.305,0.549,-0.305
-0.171,-1.008,-0.106,-0.122,0.366,-0.305
-0.172,-1.010,-0.103,-0.366,0.244,-0.427
-0.172,-1.008,-0.098,-0.610,0.000,-0.732
-0.173,-1.002,-0.093,-0.793,-0.183,-0.977
-0.172,-1.001,-0.095,-0.610,-0.183,-1.038
-0.168,-0.999,-0.098,-0.488,0.183,-1.221
-0.166,-1.000,-0.100,-0.427,0.427,-1.282
-0.164,-1.000,-0.099,-0.366,0.671,-1.282
-0.165,-1.000,-0.099,-0.183,0.977,-1.221
-0.163,-1.000,-0.104,-0.488,1.160,-1.343
-0.164,-1.000,-0.107,-0.732,0.977,-1.343
-0.165,-1.001,-0.110,-0.610,0.732,-1.160
-0.168,-1.000,-0.109,-0.427,0.549,-0.793
-0.167,-0.997,-0.102,-0.427,0.122,-0.610
-0.169,-0.997,-0.094,-0.183,-0.610,-0.305
-0.171,-0.997,-0.088,-0.549,-0.916,-0.061
-0.173,-0.998,-0.085,-0.977,-1.038,0.122
-0.176,-0.997,-0.085,-1.465,-1.099,0.122
-0.176,-0.999,-0.089,-1.648,-0.916,0.244
-0.171,-1.000,-0.094,-1.404,-0.488,0.244
-0.169,-1.001,-0.100,-0.977,-0.305,0.305
-0.170,-1.001,-0.106,-0.549,-0.183,0.183
-0.168,-1.005,-0.112,-0.244,-0.183,0.000
-0.167,-1.003,-0.111,-0.366,-0.183,-0.244
-0.165,-1.001,-0.107,-0.427,-0.549,-0.244
-0.164,-1.000,-0.104,-0.244,-0.793,-0.244
-0.166,-1.000,-0.104,-0.366,-0.854,0.122
-0.169,-1.001,-0.098,-0.549,-1.038,0.366
-0.173,-1.000,-0.097,-0.916,-0.854,0.305
-0.176,-0.996,-0.094,-1.282,-0.732,0.183
-0.176,-0.993,-0.093,-1.343,-0.488,-0.061
-0.173,-0.993,-0.093,-1.221,-0.305,0.061
-0.170,-0.995,-0.096,-0.977,-0.122,0.427
-0.171,-1.000,-0.097,-1.160,-0.061,0.793
-0.172,-1.003,-0.101,-1.526,0.244,0.793

2.784,-1.856,-1.406,-46.875,44.983,-96.191
-0.302,-1.646,0.547,-29.602,-32.288,-111.023
-0.720,-0.575,0.640,77.271,-97.778,-11.963
-1.440,-0.278,0.035,36.621,-45.288,53.589
-0.830,-1.005,-0.974,-15.686,5.493,29.724
-0.208,-1.055,0.001,-75.806,-8.362,-6.042
0.166,-1.097,0.074,-84.595,-32.898,-23.621
0.166,-0.842,0.024,-21.484,-24.902,-23.132
0.044,-0.784,-0.037,20.386,-19.165,-20.691
-0.106,-0.790,-0.016,29.297,-17.212,-15.320
-0.188,-0.952,-0.037,23.560,-9.705,-9.583
-0.189,-1.038,-0.141,16.174,-4.578,-6.409
-0.204,-1.078,-0.203,6.836,-6.165,-4.395
-0.221,-1.073,-0.156,-4.211,-11.536,-1.343
-0.205,-1.043,-0.154,-13.184,-13.489,3.357
-0.184,-1.048,-0.156,-13.794,-14.465,6.592
-0.186,-1.059,-0.043,-7.324,-19.470,8.728
-0.198,-1.091,0.069,-1.831,-18.616,8.667
-0.200,-1.108,0.045,-0.854,-7.507,6.409
-0.203,-1.101,0.010,2.380,0.427,3.845
-0.193,-1.088,-0.023,4.761,5.798,0.427
-0.178,-1.045,-0.069,3.723,9.277,-2.747
-0.168,-1.013,-0.110,3.174,11.292,-4.944
-0.162,-0.985,-0.134,3.967,11.292,-6.042
-0.159,-0.959,-0.158,4.761,9.644,-5.249
-0.163,-0.948,-0.165,5.493,7.324,-4.028
-0.165,-0.941,-0.150,5.981,5.188,-2.930
-0.167,-0.940,-0.129,6.042,3.845,-2.380
-0.170,-0.940,-0.109,4.822,3.296,-1.831
-0.176,-0.944,-0.087,3.662,2.808,-1.038
-0.185,-0.945,-0.083,2.686,2.014,-0.183
-0.193,-0.950,-0.082,2.075,0.732,1.038
-0.192,-0.953,-0.092,0.916,-0.183,2.563
-0.190,-0.962,-0.101,-0.732,-1.160,3.906
-0.185,-0.975,-0.105,-2.747,-2.014,5.493
-0.183,-0.996,-0.102,-4.517,-2.625,6.470
-0.184,-1.004,-0.099,-5.615,-2.808,7.080
-0.183,-1.014,-0.099,-5.981,-2.136,6.836
-0.183,-1.019,-0.097,-4.883,-1.038,6.042
-0.180,-1.017,-0.092,-3.052,0.488,5.188
-0.180,-1.021,-0.090,-1.099,2.258,3.784
-0.177,-1.014,-0.087,0.305,4.211,2.686
-0.178,-1.012,-0.096,1.404,5.371,2.014
-0.182,-1.005,-0.099,1.587,5.249,0.793
-0.182,-1.000,-0.105,1.038,4.089,0.427
-0.183,-0.998,-0.115,0.427,3.296,0.122
-0.182,-0.992,-0.107,0.000,2.014,-0.122
-0.178,-0.989,-0.113,-0.916,1.404,0.122
-0.175,-0.991,-0.121,-1.648,0.854,0.549
-0.172,-0.993,-0.118,-1.892,0.183,0.732
-0.171,-0.993,-0.112,-2.197,-0.061,0.977
-0.171,-0.996,-0.103,-2.747,-0.122,1.160
-0.173,-0.997,-0.096,-3.662,0.061,1.221
-0.174,-1.000,-0.097,-4.333,0.305,1.465
-0.172,-1.001,-0.099,-4.456,0.061,1.709
-0.174,-1.004,-0.102,-4.272,-0.488,1.465
-0.174,-1.006,-0.105,-4.272,-0.610,1.343
-0.175,-1.004,-0.102,-4.150,-0.427,1.221
-0.175,-1.005,-0.098,-3.967,-0.122,1.038
-0.175,-1.007,-0.092,-3.296,0.000,0.610
-0.175,-1.006,-0.088,-2.869,0.122,0.366
-0.176,-1.004,-0.086,-2.502,0.366,0.061
-0.174,-1.002,-0.088,-2.075,0.793,-0.183
-0.171,-1.001,-0.091,-1.770,0.977,-0.488
-0.169,-1.001,-0.096,-1.221,1.038,-0.610
-0.167,-1.002,-0.098,-0.916,1.160,-0.916
-0.168,-1.005,-0.096,-0.977,1.099,-1.099
-0.165,-1.001,-0.095,-1.343,0.916,-1.221
-0.163,-1.001,-0.096,-1.526,0.488,-1.160
-0.166,-0.999,-0.095,-1.343,0.061,-1.160
-0.170,-0.996,-0.087,-0.977,-0.427,-1.221
-0.175,-0.990,-0.083,-0.732,-0.488,-0.916
-0.179,-0.985,-0.087,-0.549,-0.244,-0.427
-0.179,-0.983,-0.089,-0.549,0.122,0.000
-0.183,-0.986,-0.086,-0.305,0.183,0.366
-0.182,-0.996,-0.086,0.183,0.671,0.732
-0.178,-1.001,-0.090,0.122,0.793,0.793
-0.180,-1.005,-0.089,-0.305,0.671,0.793
-0.180,-1.010,-0.088,-0.854,0.244,0.244
-0.178,-1.011,-0.081,-1.099,0.122,-0.183
-0.179,-1.008,-0.077,-1.404,0.244,-0.549
-0.177,-1.010,-0.076,-1.282,0.427,-0.488
-0.176,-1.008,-0.078,-0.916,0.183,-0.488
-0.175,-1.008,-0.082,-0.305,0.366,-0.732
-0.173,-1.009,-0.088,-0.183,0.488,-1.038
-0.172,-1.008,-0.098,-0.366,0.732,-1.343
-0.172,-1.005,-0.103,-0.305,0.610,-1.526
-0.172,-1.002,-0.109,-0.244,-0.061,-1.709
-0.172,-0.998,-0.107,-0.488,-0.732,-1.465
-0.178,-0.992,-0.101,-0.732,-1.404,-1.221
-0.180,-0.990,-0.091,-0.916,-1.465,-0.916
-0.181,-0.991,-0.082,-1.282,-1.099,-0.610
-0.182,-0.992,-0.074,-1.404,-0.854,-0.488
-0.181,-0.990,-0.071,-1.526,-0.427,-0.549
-0.181,-0.996,-0.077,-1.831,0.000,-0.549
-0.180,-0.999,-0.084,-1.892,0.549,-0.488
-0.177,-0.999,-0.095,-2.380,0.916,-0.488
-0.175,-0.998,-0.105,-2.747,0.854,-0.488
-0.174,-1.000,-0.108,-2.808,0.671,-0.183
-0.173,-1.000,-0.103,-2.808,0.366,-0.122
-0.175,-1.002,-0.094,-2.258,0.183,-0.183
-0.176,-1.003,-0.086,-1.953,0.305,0.000
-0.177,-1.004,-0.081,-1.831,0.366,-0.061
-0.180,-1.001,-0.076,-1.892,0.427,-0.549
-0.178,-0.999,-0.075,-2.075,0.793,-0.854
-0.176,-0.993,-0.079,-1.770,0.916,-0.977
-0.176,-0.993,-0.082,-0.916,0.793,-0.793
-0.179,-0.996,-0.083,-0.061,0.854,-0.366
-0.178,-0.995,-0.087,-0.061,0.854,0.061
-0.175,-0.995,-0.092,-0.305,0.183,0.244
-0.175,-0.996,-0.095,-0.488,-0.183,0.427
-0.176,-0.996,-0.094,-0.610,-0.366,0.610
-0.176,-1.000,-0.087,-0.671,-0.671,0.549
-0.177,-0.998,-0.073,-1.160,-0.916,0.549
-0.180,-0.998,-0.071,-1.709,-0.488,0.732
-0.177,-0.999,-0.076,-2.014,-0.061,0.671
-0.175,-1.001,-0.081,-1.587,-0.244,0.549
-0.174,-1.001,-0.086,-1.282,-0.061,0.549
-0.173,-1.002,-0.091,-0.916,0.305,0.488

2.102,-2.556,-1.017,70.923,175.964,-123.352
-0.083,-1.492,-0.843,-72.693,94.727,-106.812
-0.371,-0.601,0.284,96.680,-67.932,-31.555
-1.349,-0.113,-0.276,18.921,-45.471,30.823
-0.933,-0.701,-0.530,-54.749,-18.921,8.301
-0.421,-1.414,-0.040,-67.993,-12.451,-28.992
0.002,-1.055,-0.074,-30.518,-17.029,-14.832
0.081,-0.924,-0.027,5.554,-16.357,-14.526
-0.059,-0.864,0.145,17.395,-21.912,-20.142
-0.160,-0.899,0.216,13.977,-18.616,-18.738
-0.185,-0.965,0.123,10.437,-6.836,-17.456
-0.172,-1.011,0.045,5.310,3.418,-13.916
-0.206,-1.037,-0.182,-4.944,10.864,-7.996
-0.221,-1.024,-0.299,-13.184,8.057,-2.197
-0.234,-1.027,-0.248,-13.550,-3.357,4.211
-0.239,-1.052,-0.147,-9.827,-12.634,8.972
-0.235,-1.058,-0.085,-6.104,-15.869,12.390
-0.239,-1.063,-0.030,-0.610,-17.273,13.123
-0.240,-1.070,0.031,6.348,-17.639,11.536
-0.237,-1.061,0.073,11.780,-14.832,8.667
-0.227,-1.102,0.044,12.939,-5.798,4.700
-0.207,-1.049,-0.023,7.935,8.118,0.854
-0.203,-1.014,-0.085,5.798,11.353,-1.404
-0.205,-0.985,-0.101,4.822,9.705,-2.625
-0.203,-0.953,-0.123,4.211,8.484,-2.747
-0.201,-0.950,-0.129,4.761,7.019,-2.319
-0.203,-0.937,-0.125,5.920,4.700,-1.648
-0.201,-0.944,-0.105,6.714,3.052,-1.038
-0.208,-0.939,-0.089,6.226,2.075,-0.427
-0.205,-0.943,-0.079,4.883,1.343,-0.061
-0.203,-0.946,-0.069,3.113,0.366,0.977
-0.208,-0.945,-0.070,1.587,-0.610,2.075
-0.216,-0.952,-0.068,0.183,-1.953,3.357
-0.217,-0.959,-0.075,-1.160,-2.625,4.700
-0.217,-0.976,-0.078,-2.258,-2.991,5.554
-0.217,-0.990,-0.075,-2.930,-2.747,6.287
-0.216,-0.996,-0.077,-3.235,-1.770,6.470
-0.213,-1.003,-0.076,-3.418,-0.732,6.409
-0.211,-1.008,-0.071,-3.296,0.305,5.554
-0.214,-1.010,-0.066,-3.540,1.526,4.211
-0.216,-1.010,-0.066,-3.662,3.052,2.563
-0.216,-1.016,-0.058,-3.296,4.028,1.221
-0.220,-1.021,-0.047,-2.747,4.395,0.366
-0.218,-0.994,-0.062,-2.136,4.517,0.793
-0.213,-1.003,-0.066,-2.502,3.357,-0.305
-0.211,-0.999,-0.069,-3.357,1.770,-0.488
-0.206,-0.998,-0.080,-3.479,0.793,-0.549
-0.203,-0.994,-0.087,-3.174,-0.549,-0.427
-0.200,-0.991,-0.088,-3.418,-1.465,0.000
-0.199,-0.988,-0.083,-3.845,-2.014,0.427
-0.200,-0.982,-0.077,-4.456,-2.502,0.610
-0.202,-0.980,-0.076,-4.822,-2.747,0.854
-0.207,-0.981,-0.070,-4.822,-2.747,1.099
-0.209,-0.979,-0.062,-4.639,-2.502,1.160
-0.213,-0.987,-0.059,-4.639,-1.648,1.343
-0.213,-0.991,-0.056,-4.700,-1.160,1.282
-0.209,-0.997,-0.055,-4.517,-1.221,1.099
-0.207,-1.000,-0.055,-3.906,-1.587,1.038
-0.203,-1.001,-0.058,-3.052,-1.709,0.916
-0.201,-1.003,-0.066,-2.136,-1.465,0.671
-0.202,-1.007,-0.067,-1.343,-1.343,0.427
-0.203,-1.008,-0.063,-0.610,-1.099,0.183
-0.204,-1.005,-0.060,-0.549,-0.732,0.000
-0.204,-1.001,-0.061,-0.671,-0.610,-0.427
-0.204,-0.998,-0.070,-0.610,-0.610,-0.793
-0.203,-0.993,-0.074,-0.427,-0.671,-0.916
-0.205,-0.992,-0.073,-0.305,-0.793,-0.916
-0.207,-0.992,-0.070,-0.305,-0.793,-0.488
-0.206,-0.993,-0.062,0.122,-1.038,-0.366
-0.208,-0.996,-0.058,0.488,-1.404,-0.305
-0.209,-0.998,-0.057,0.549,-1.526,-0.366
-0.209,-0.996,-0.061,0.488,-1.404,-0.366
-0.209,-0.997,-0.062,0.061,-1.160,-0.183
-0.208,-0.992,-0.062,-0.305,-0.793,-0.061
-0.207,-0.991,-0.063,-0.549,-0.366,0.000
-0.207,-0.993,-0.067,-0.549,0.061,-0.061
-0.204,-0.995,-0.073,-0.977,0.000,0.000
-0.205,-0.997,-0.069,-1.343,-0.244,-0.122
-0.207,-1.000,-0.067,-1.465,-0.305,0.122
-0.208,-1.000,-0.069,-1.465,-0.366,0.305
-0.210,-0.998,-0.066,-1.099,-0.916,0.366
-0.211,-0.995,-0.063,-0.854,-0.854,0.122
-0.207,-0.999,-0.059,-0.488,-0.854,0.122
-0.206,-0.999,-0.055,-0.305,-0.671,-0.061
-0.205,-1.000,-0.053,-0.061,-0.671,-0.122
-0.205,-0.998,-0.059,0.000,-0.610,-0.183
-0.205,-0.999,-0.064,0.000,-0.610,-0.122
-0.205,-0.998,-0.065,0.732,-0.793,-0.305
-0.205,-0.997,-0.067,0.977,-0.793,-0.061
-0.206,-0.993,-0.066,0.732,-0.732,-0.061
-0.206,-0.994,-0.069,0.427,-0.793,-0.061
-0.208,-0.994,-0.069,-0.061,-1.038,0.183
-0.208,-0.991,-0.068,-0.793,-1.221,0.061
-0.209,-0.993,-0.061,-1.404,-1.221,0.061
-0.213,-0.997,-0.057,-1.648,-0.977,0.061
-0.212,-1.000,-0.053,-2.014,-0.061,0.061
-0.210,-1.003,-0.056,-1.770,0.549,0.000
-0.207,-1.005,-0.056,-1.221,0.977,-0.061
-0.204,-1.006,-0.056,-0.732,0.916,-0.366
-0.203,-1.007,-0.057,-0.549,0.305,-0.671
-0.208,-1.003,-0.065,-0.610,-0.427,-0.671
-0.209,-0.999,-0.070,-1.038,-0.977,-0.732
-0.207,-0.995,-0.074,-1.099,-1.099,-0.671
-0.208,-0.991,-0.076,-0.793,-1.160,-0.549
-0.208,-0.990,-0.076,-0.366,-1.099,-0.305
-0.206,-0.988,-0.075,-0.244,-1.099,-0.183
-0.203,-0.985,-0.071,-0.427,-1.221,-0.061
-0.202,-0.989,-0.065,-0.793,-1.221,-0.122
-0.203,-0.990,-0.060,-1.282,-1.038,0.122
-0.203,-0.989,-0.054,-1.953,-0.732,0.122
-0.203,-0.992,-0.052,-2.747,-0.305,0.122
-0.203,-0.990,-0.052,-3.296,0.061,0.427
-0.208,-0.997,-0.058,-4.028,0.366,0.671
-0.206,-0.997,-0.059,-2.625,0.366,0.732
-0.205,-0.999,-0.057,-1.343,0.183,0.793
-0.204,-0.998,-0.065,-1.465,0.000,0.854
-0.204,-1.000,-0.068,-1.587,-0.549,0.732
-0.207,-1.000,-0.065,-1.282,-1.038,0.488
-0.208,-1.001,-0.060,-1.221,-1.343,0.244

0.221,-2.144,0.898,63.049,174.988,-60.791
0.605,-2.199,-1.406,-37.537,138.000,-109.070
0.047,-1.048,-0.690,-21.912,65.674,-52.063
-0.529,-0.749,0.143,43.823,-35.156,-6.775
-0.992,-0.412,-0.200,-23.743,-28.381,13.794
-0.539,-0.987,-0.343,-40.344,-21.118,-5.310
-0.237,-1.118,-0.089,-26.917,-24.963,-10.376
-0.053,-0.990,-0.132,-16.296,-26.306,-1.343
-0.066,-0.917,-0.054,-6.470,-27.954,-2.014
-0.101,-0.916,0.066,4.333,-29.907,-5.432
-0.132,-0.937,0.083,7.935,-22.827,-5.798
-0.147,-0.943,0.057,5.493,-13.184,-4.578
-0.168,-1.010,0.081,1.465,-8.240,-4.089
-0.194,-1.009,0.094,-6.775,-3.357,-0.854
-0.183,-0.992,-0.088,-14.709,4.211,4.211
-0.180,-1.006,-0.211,-15.564,2.991,5.798
-0.181,-1.033,-0.177,-10.925,-7.568,6.165
-0.190,-1.045,-0.078,-5.371,-16.235,5.676
-0.188,-1.069,-0.014,-0.183,-17.639,4.761
-0.172,-1.048,0.034,3.601,-13.794,3.784
-0.181,-1.049,0.056,9.827,-7.507,1.587
-0.176,-1.042,0.043,13.062,-2.014,-1.099
-0.168,-1.027,-0.001,10.681,3.113,-3.052
-0.168,-1.008,0.009,8.850,6.348,-4.333
-0.165,-0.986,-0.067,5.981,9.033,-5.432
-0.163,-0.966,-0.087,5.554,7.141,-4.944
-0.163,-0.954,-0.089,5.798,4.456,-3.967
-0.167,-0.954,-0.084,5.188,2.136,-3.174
-0.177,-0.949,-0.071,4.517,0.366,-2.380
-0.191,-0.956,-0.049,3.662,-0.549,-1.160
-0.200,-0.958,-0.042,1.831,-0.488,0.183
-0.200,-0.965,-0.054,-0.793,0.305,1.099
-0.200,-0.984,-0.068,-3.662,0.610,1.343
-0.198,-1.003,-0.062,-5.432,-0.122,2.014
-0.200,-1.022,-0.043,-6.470,0.183,2.991
-0.194,-1.040,-0.008,-6.958,2.625,4.700
-0.173,-1.015,-0.106,-7.568,6.104,5.859
-0.178,-1.031,-0.053,-5.371,3.052,4.517
-0.181,-1.033,-0.025,-4.028,1.099,3.235
-0.179,-1.033,-0.024,-4.028,2.258,1.892
-0.179,-1.026,-0.032,-3.723,3.418,0.427
-0.177,-1.016,-0.051,-3.296,3.845,-0.977
-0.184,-1.017,-0.063,-2.747,3.784,-2.136
-0.185,-1.003,-0.067,-1.953,2.625,-2.441
-0.190,-0.996,-0.064,-1.038,1.404,-2.075
-0.191,-0.993,-0.058,-0.061,0.305,-1.953
-0.188,-0.982,-0.049,0.122,-0.854,-1.282
-0.187,-0.980,-0.044,-0.122,-1.709,-0.549
-0.183,-0.981,-0.042,-0.610,-2.319,-0.061
-0.180,-0.985,-0.042,-1.343,-2.930,0.000
-0.180,-0.990,-0.040,-1.648,-3.174,0.122
-0.176,-0.993,-0.044,-2.014,-3.174,0.061
-0.176,-0.993,-0.053,-2.197,-2.991,0.061
-0.175,-0.999,-0.063,-2.441,-3.052,0.183
-0.170,-1.004,-0.063,-2.441,-3.174,-0.305
-0.170,-1.002,-0.068,-2.014,-2.747,-0.366
-0.171,-1.005,-0.071,-1.587,-2.136,0.061
-0.173,-1.008,-0.063,-1.282,-1.770,0.122
-0.177,-1.006,-0.056,-1.587,-1.465,0.000
-0.180,-1.002,-0.048,-1.831,-1.099,-0.061
-0.179,-1.001,-0.044,-1.709,-0.854,-0.305
-0.179,-1.000,-0.045,-1.099,-0.610,-0.244
-0.176,-0.994,-0.048,-0.305,-0.427,-0.427
-0.177,-0.996,-0.044,0.488,-0.610,-0.732
-0.178,-0.995,-0.041,1.099,-0.732,-0.610
-0.180,-0.997,-0.045,1.343,-0.488,-0.183
-0.180,-1.000,-0.049,1.282,-0.488,-0.061
-0.182,-1.000,-0.056,0.916,-0.610,-0.061
-0.180,-1.003,-0.065,0.671,-0.610,-0.061
-0.179,-1.006,-0.073,0.549,-0.977,0.000
-0.178,-1.007,-0.075,0.061,-1.099,-0.183
-0.177,-1.003,-0.072,-0.427,-1.404,-0.427
-0.178,-1.000,-0.058,-0.488,-1.526,-0.366
-0.182,-0.998,-0.046,-0.488,-1.343,-0.061
-0.180,-0.999,-0.042,-0.305,-0.610,0.244
-0.181,-1.005,-0.036,-0.061,0.244,0.183
-0.184,-1.002,-0.030,0.061,0.854,0.366
-0.182,-1.005,-0.035,0.183,1.343,0.244
-0.181,-1.008,-0.041,0.671,1.282,0.000
-0.181,-1.008,-0.049,0.916,0.854,-0.305
-0.182,-1.008,-0.055,1.221,0.122,-0.488
-0.183,-1.007,-0.057,1.343,-0.488,-0.427
-0.183,-1.005,-0.057,1.404,-0.793,-0.305
-0.184,-1.003,-0.055,1.160,-0.916,-0.305
-0.186,-1.001,-0.048,0.732,-1.160,-0.427
-0.186,-1.003,-0.044,0.427,-1.038,-0.732
-0.186,-1.002,-0.042,0.000,-1.099,-0.732
-0.184,-1.001,-0.044,-0.244,-0.916,-0.977
-0.181,-1.000,-0.049,-0.610,-0.610,-1.099
-0.181,-0.998,-0.050,-0.916,-0.549,-1.282
-0.179,-0.994,-0.053,-0.671,-0.610,-1.404
-0.177,-0.993,-0.054,-0.305,-0.732,-1.282
-0.175,-0.997,-0.057,-0.366,-0.916,-0.977
-0.177,-0.995,-0.055,-0.305,-0.793,-1.099
-0.177,-1.001,-0.053,-0.244,-0.854,-1.038
-0.182,-1.000,-0.055,-0.122,-0.732,-0.732
-0.182,-1.001,-0.054,-0.366,-0.610,-0.366
-0.183,-1.000,-0.051,-0.732,-0.610,-0.122
-0.186,-1.002,-0.047,-0.732,-0.427,-0.122
-0.188,-1.000,-0.048,-0.977,0.122,-0.183
-0.189,-1.001,-0.048,-1.099,0.427,-0.122
-0.184,-1.004,-0.050,-0.854,0.671,-0.549
-0.182,-1.000,-0.054,-1.160,0.671,-0.427
-0.178,-1.001,-0.056,-1.648,0.122,-0.610
-0.177,-1.002,-0.056,-2.075,-0.610,-0.916
-0.177,-1.005,-0.058,-2.197,-1.038,-0.610
-0.180,-1.004,-0.059,-2.197,-1.038,-0.061
-0.182,-1.001,-0.052,-1.770,-0.671,0.061
-0.183,-1.001,-0.048,-1.465,-0.061,-0.183
-0.184,-0.999,-0.042,-1.282,0.549,-0.366
-0.185,-0.997,-0.040,-1.038,1.099,-0.549
-0.185,-0.995,-0.046,-1.038,1.221,-0.610
-0.183,-0.995,-0.052,-1.465,1.099,-0.244
-0.185,-0.999,-0.057,-1.892,0.671,0.122
-0.185,-1.002,-0.050,-1.892,-0.427,0.244
-0.186,-1.002,-0.049,-2.075,-0.854,0.610
-0.186,-1.002,-0.045,-2.441,-0.793,0.549
-0.187,-1.005,-0.041,-2.258,-0.610,0.305
-0.183,-1.002,-0.047,-1.953,0.122,0.122

0.929,-2.577,-1.944,145.264,407.288,-96.924
-0.320,-1.335,0.586,-172.485,-19.043,-73.853
-0.182,-0.879,0.790,72.510,-127.502,-27.771
-1.482,-0.756,-0.485,97.412,-3.113,45.715
-1.137,-0.788,-0.629,23.987,41.748,63.110
-0.319,-0.840,-0.601,-91.064,9.277,2.502
0.070,-0.781,-0.152,-141.907,-25.574,-44.312
0.058,-1.455,0.306,-73.059,-51.086,-72.571
-0.082,-0.956,0.546,5.981,-47.607,-42.419
-0.152,-0.753,0.380,21.851,-20.447,-16.602
-0.159,-0.874,0.072,5.859,6.165,-12.390
-0.207,-1.047,-0.135,-12.329,20.630,-12.939
-0.251,-1.080,-0.212,-23.621,20.813,-9.460
-0.259,-1.047,-0.230,-27.527,12.817,-4.211
-0.251,-1.002,-0.209,-25.696,5.249,1.343
-0.243,-1.016,-0.149,-19.531,-0.793,5.615
-0.230,-1.097,-0.096,-10.803,-8.240,7.263
-0.230,-1.081,-0.010,-4.822,-15.259,8.179
-0.238,-1.055,0.097,6.592,-19.104,6.897
-0.233,-1.059,0.124,11.841,-16.418,3.845
-0.217,-1.039,0.075,11.230,-8.545,0.916
-0.193,-0.996,0.018,10.193,-2.075,-0.732
-0.189,-0.970,-0.019,10.559,1.892,-2.380
-0.196,-0.952,-0.058,10.437,4.272,-2.808
-0.200,-0.933,-0.079,9.888,4.150,-2.502
-0.203,-0.932,-0.072,9.949,2.258,-2.197
-0.203,-0.941,-0.057,9.094,0.793,-2.441
-0.204,-0.942,-0.051,7.446,-0.061,-2.197
-0.208,-0.939,-0.043,5.737,-1.038,-1.282
-0.215,-0.941,-0.032,3.845,-2.197,-0.427
-0.224,-0.949,-0.020,1.953,-2.930,0.244
-0.237,-0.960,-0.023,-0.122,-2.380,1.221
-0.239,-0.980,-0.046,-2.197,-1.221,2.319
-0.237,-0.995,-0.062,-3.418,-0.977,3.418
-0.238,-1.003,-0.060,-3.601,-1.587,4.395
-0.240,-1.014,-0.049,-3.906,-2.258,4.517
-0.237,-1.016,-0.049,-3.784,-2.319,4.395
-0.228,-1.022,-0.043,-2.502,-2.380,3.845
-0.223,-1.021,-0.036,-0.854,-2.014,3.479
-0.229,-1.031,-0.034,0.854,-1.099,3.113
-0.231,-1.024,-0.026,2.441,-0.244,2.808
-0.233,-1.011,-0.017,4.211,0.427,2.319
-0.233,-1.016,-0.024,4.150,1.343,1.038
-0.230,-1.007,-0.037,3.113,2.014,0.122
-0.229,-1.000,-0.058,1.892,1.770,-0.305
-0.232,-0.994,-0.079,0.793,0.061,-1.099
-0.225,-0.993,-0.080,0.183,-2.075,-1.709
-0.225,-0.988,-0.068,0.000,-4.272,-1.343
-0.218,-0.991,-0.075,-0.305,-4.395,-0.977
-0.212,-0.984,-0.074,-0.122,-4.456,0.061
-0.215,-0.986,-0.054,0.610,-4.883,0.977
-0.215,-0.989,-0.040,0.244,-4.578,1.282
-0.219,-0.985,-0.035,-0.854,-3.662,1.526
-0.218,-0.989,-0.037,-2.441,-2.625,1.099
-0.216,-0.986,-0.045,-4.028,-1.648,0.732
-0.216,-0.986,-0.052,-4.761,-1.526,0.305
-0.215,-0.983,-0.057,-4.517,-1.831,-0.183
-0.211,-0.990,-0.061,-3.906,-1.709,-0.427
-0.209,-0.994,-0.062,-3.113,-1.953,-0.427
-0.210,-0.993,-0.052,-2.319,-2.136,-0.488
-0.213,-0.990,-0.046,-2.136,-2.380,-0.610
-0.214,-0.987,-0.048,-2.136,-2.502,-0.610
-0.215,-0.978,-0.046,-2.014,-2.686,-0.549
-0.217,-0.974,-0.045,-1.648,-2.563,-0.183
-0.215,-0.975,-0.042,-0.732,-2.014,0.000
-0.219,-0.984,-0.034,0.122,-1.526,0.244
-0.221,-0.991,-0.028,0.793,-1.343,0.610
-0.222,-1.001,-0.028,1.404,-1.404,0.671
-0.221,-1.004,-0.040,1.099,-1.465,0.549
-0.219,-1.006,-0.055,0.610,-1.709,0.549
-0.219,-1.001,-0.063,0.244,-2.136,0.427
-0.218,-0.998,-0.061,0.244,-2.625,0.061
-0.220,-0.993,-0.051,0.854,-2.869,-0.061
-0.222,-0.995,-0.043,1.709,-2.502,-0.305
-0.222,-0.990,-0.037,2.319,-1.892,-0.366
-0.223,-0.992,-0.037,2.380,-1.404,-0.427
-0.221,-0.990,-0.038,2.075,-0.977,-0.488
-0.220,-0.986,-0.042,1.770,-0.793,-0.610
-0.219,-0.984,-0.045,0.793,-0.610,-0.488
-0.220,-0.986,-0.047,0.305,-0.977,-0.366
-0.221,-0.988,-0.043,0.000,-1.404,-0.305
-0.224,-0.994,-0.044,-0.427,-1.770,-0.061
-0.223,-0.998,-0.055,-0.916,-2.380,0.061
-0.219,-1.001,-0.060,-1.099,-3.052,0.000
-0.218,-1.006,-0.062,-0.793,-3.723,-0.061
-0.219,-1.007,-0.059,-0.305,-4.517,-0.183
-0.219,-1.010,-0.057,-0.122,-4.761,-0.244
-0.220,-1.011,-0.060,-0.244,-4.150,-0.671
-0.221,-1.002,-0.060,-0.610,-2.930,-1.099
-0.220,-0.998,-0.064,-0.916,-1.587,-1.343
-0.221,-0.989,-0.062,-0.854,-0.732,-1.465
-0.219,-0.989,-0.059,-0.610,-0.244,-1.404
-0.220,-0.984,-0.059,-0.488,0.061,-1.160
-0.223,-0.983,-0.054,-0.488,-0.244,-0.488
-0.223,-0.984,-0.046,-0.183,-0.610,-0.061
-0.225,-0.988,-0.044,-0.305,-0.549,0.366
-0.227,-0.993,-0.047,-0.488,-0.366,0.610
-0.226,-0.997,-0.053,-1.038,-0.305,0.366
-0.224,-1.001,-0.062,-1.465,-0.183,0.305
-0.221,-1.001,-0.068,-1.648,0.183,0.244
-0.217,-1.002,-0.067,-1.709,0.305,0.000
-0.215,-1.003,-0.061,-1.648,0.244,0.061
-0.214,-1.001,-0.052,-1.526,-0.061,0.061
-0.215,-0.995,-0.042,-1.709,-0.610,0.000
-0.215,-0.988,-0.041,-2.136,-0.366,-0.183
-0.216,-0.981,-0.045,-2.136,-0.183,-0.305
-0.217,-0.981,-0.046,-1.404,0.183,-0.488
-0.216,-0.988,-0.047,-0.183,0.610,-0.305
-0.216,-0.991,-0.050,0.122,1.038,0.000
-0.216,-0.991,-0.054,-0.244,1.038,0.061
-0.218,-0.993,-0.058,-0.488,0.916,0.366
-0.219,-0.995,-0.064,-0.549,0.488,0.854
-0.223,-0.994,-0.060,-0.427,-0.366,1.160
-0.224,-0.992,-0.046,-0.549,-0.977,1.221
-0.228,-0.995,-0.035,-1.038,-1.160,0.977
-0.227,-0.996,-0.036,-1.770,-0.549,0.610
-0.223,-0.999,-0.040,-2.625,-0.122,0.305
-0.222,-1.001,-0.043,-3.174,-0.122,0.000
-0.223,-1.001,-0.044,-3.113,-0.061,-0.122

0.844,-1.402,1.243,-113.098,133.850,-63.110
-0.043,-0.825,-0.879,-124.268,102.295,-49.927
-0.713,-1.308,0.013,13.489,-10.071,-2.441
-1.084,-0.426,-0.128,7.141,-53.772,62.500
-0.648,-0.419,-0.396,-50.598,-33.691,46.875
-0.188,-1.237,-0.248,-61.401,-23.193,-18.555
-0.026,-1.198,-0.284,-53.040,-20.813,-33.569
0.009,-0.823,-0.036,-28.870,-33.386,-20.386
-0.086,-0.792,0.190,-11.230,-41.443,-20.874
-0.117,-0.907,0.255,-4.517,-30.823,-21.423
-0.171,-1.000,0.270,0.244,-14.038,-15.747
-0.210,-1.049,0.173,-5.493,2.441,-9.277
-0.229,-1.041,-0.016,-22.400,14.160,-4.456
-0.229,-1.001,-0.149,-34.851,14.709,-0.732
-0.228,-1.014,-0.162,-33.997,5.920,0.916
-0.227,-1.034,-0.081,-23.132,-5.249,3.174
-0.225,-1.065,0.003,-12.268,-12.024,5.371
-0.228,-1.084,0.050,-4.578,-13.611,5.798
-0.227,-1.094,0.075,3.113,-11.902,5.432
-0.216,-1.088,0.099,9.399,-8.667,3.967
-0.189,-1.066,0.088,12.756,-3.967,1.465
-0.172,-1.032,0.026,12.329,1.038,-0.183
-0.167,-0.997,-0.014,11.658,2.563,-1.038
-0.172,-1.004,-0.005,12.695,3.174,-0.977
-0.178,-0.978,-0.057,9.033,6.958,0.061
-0.181,-0.970,-0.072,9.155,5.493,0.671
-0.182,-0.956,-0.060,8.667,2.625,0.610
-0.185,-0.943,-0.034,7.324,0.549,0.793
-0.195,-0.946,-0.033,7.202,-0.061,0.977
-0.203,-0.958,-0.038,6.653,-1.038,1.343
-0.210,-0.968,-0.041,5.249,-2.319,2.380
-0.210,-0.979,-0.036,2.502,-3.113,3.723
-0.205,-0.977,-0.062,-1.221,-2.869,5.005
-0.213,-0.995,-0.071,-4.333,-3.296,6.104
-0.215,-1.006,-0.048,-5.676,-4.578,5.859
-0.206,-1.024,-0.047,-6.592,-4.150,6.165
-0.203,-1.022,-0.020,-6.165,-3.906,5.859
-0.195,-1.038,-0.016,-4.333,-5.554,5.310
-0.205,-1.029,-0.003,-3.174,-4.822,3.357
-0.204,-1.021,-0.003,-3.540,-0.793,0.732
-0.198,-1.012,-0.016,-2.258,1.648,-1.465
-0.195,-1.001,-0.026,-2.869,2.686,-2.747
-0.197,-1.000,-0.047,-2.747,2.380,-3.052
-0.195,-1.000,-0.044,-1.526,1.038,-2.930
-0.198,-0.997,-0.038,-0.549,-0.732,-2.136
-0.192,-0.994,-0.038,0.061,-1.282,-1.465
-0.190,-0.991,-0.037,0.122,-2.197,-0.793
-0.188,-0.979,-0.032,0.183,-3.418,0.305
-0.188,-0.974,-0.025,-0.061,-4.211,1.038
-0.193,-0.971,-0.018,-0.244,-4.517,1.465
-0.196,-0.970,-0.016,-1.160,-4.333,1.831
-0.193,-0.971,-0.012,-2.319,-4.150,1.892
-0.192,-0.974,-0.015,-3.662,-3.357,1.831
-0.188,-0.981,-0.024,-4.456,-2.686,1.831
-0.184,-0.993,-0.026,-4.578,-2.686,1.831
-0.185,-1.000,-0.026,-4.822,-3.540,1.892
-0.185,-1.009,-0.028,-4.761,-4.517,1.953
-0.187,-1.009,-0.027,-5.005,-4.456,1.770
-0.190,-1.006,-0.018,-4.822,-4.272,1.526
-0.190,-1.001,-0.006,-3.845,-4.211,1.404
-0.193,-0.999,0.004,-2.808,-3.845,1.160
-0.196,-0.996,0.007,-1.709,-3.357,1.099
-0.195,-0.998,0.009,-0.977,-2.319,0.610
-0.195,-1.000,0.006,-0.427,-1.648,0.183
-0.197,-1.000,-0.003,-0.305,-1.221,-0.305
-0.195,-1.002,-0.010,-0.183,-0.732,-0.671
-0.195,-1.005,-0.019,0.183,-0.427,-0.488
-0.194,-1.005,-0.029,0.427,-0.488,-0.244
-0.194,-1.006,-0.029,0.916,-0.671,0.000
-0.195,-1.007,-0.028,1.465,-0.549,0.244
-0.193,-1.004,-0.029,1.709,-0.183,0.366
-0.194,-1.002,-0.025,1.770,0.183,0.122
-0.196,-1.001,-0.020,1.709,0.000,-0.183
-0.195,-0.997,-0.014,1.404,-0.549,-0.549
-0.195,-0.998,-0.011,0.732,-0.610,-0.793
-0.198,-0.995,-0.016,0.061,-0.183,-0.732
-0.196,-0.996,-0.016,-0.122,-0.244,-0.793
-0.196,-1.001,-0.015,-0.244,-0.122,-0.671
-0.193,-1.005,-0.022,-0.427,0.122,-0.427
-0.191,-1.003,-0.027,-0.183,-0.122,-0.549
-0.192,-1.008,-0.027,0.366,-0.183,-0.549
-0.192,-1.009,-0.026,0.977,-0.549,-0.366
-0.193,-1.007,-0.027,0.977,-0.671,-0.122
-0.194,-1.003,-0.023,0.977,-0.793,0.000
-0.197,-1.001,-0.017,1.160,-0.671,0.000
-0.197,-0.997,-0.012,1.221,-0.549,-0.061
-0.195,-0.997,-0.010,1.160,-0.244,-0.122
-0.194,-0.997,-0.013,0.977,-0.122,-0.366
-0.194,-0.997,-0.021,0.549,-0.122,-0.793
-0.192,-0.995,-0.030,0.000,-0.244,-1.038
-0.190,-0.995,-0.032,-0.122,-0.549,-1.404
-0.188,-0.995,-0.034,0.122,-0.854,-1.404
-0.187,-0.992,-0.031,0.244,-0.793,-1.038
-0.186,-0.993,-0.025,0.122,-0.854,-0.793
-0.187,-0.995,-0.018,0.000,-1.099,-0.305
-0.190,-0.995,-0.012,0.061,-0.854,0.061
-0.192,-0.996,-0.010,-0.122,-0.732,0.061
-0.195,-0.997,-0.011,-0.122,-0.366,0.000
-0.195,-0.999,-0.010,-0.244,-0.183,0.122
-0.195,-1.001,-0.015,-0.610,0.061,0.183
-0.195,-1.006,-0.019,-0.916,0.244,0.183
-0.197,-1.012,-0.018,-1.282,0.427,0.061
-0.198,-1.001,-0.034,-1.709,0.366,0.305
-0.199,-1.002,-0.024,-1.526,-0.244,-0.061
-0.199,-1.002,-0.016,-0.793,-0.854,0.122
-0.197,-0.999,-0.016,-0.793,-1.038,0.366
-0.197,-0.999,-0.006,-0.977,-1.099,0.366
-0.195,-1.000,-0.013,-1.160,-0.793,0.122
-0.189,-1.001,-0.025,-1.404,-0.427,-0.244
-0.191,-1.004,-0.025,-1.160,-0.122,-0.671
-0.187,-1.004,-0.036,-1.099,0.183,-0.610
-0.188,-1.001,-0.040,-1.221,0.183,-0.671
-0.189,-1.001,-0.027,-1.465,-0.305,-0.977
-0.191,-1.001,-0.018,-1.831,-0.549,-0.977
-0.192,-0.996,-0.017,-1.953,-0.366,-0.854
-0.194,-0.995,-0.016,-1.831,-0.244,-0.488
-0.194,-0.998,-0.009,-1.709,-0.122,-0.366
-0.195,-0.997,-0.006,-1.465,0.183,-0.122
-0.195,-0.998,-0.013,-0.977,0.671,-0.183

1.181,-2.928,0.466,217.896,191.345,-86.670
0.167,-0.512,-1.345,-134.827,153.137,-21.545
-0.297,-1.218,-0.592,-20.752,18.127,0.549
-1.223,-0.640,0.084,29.785,-37.170,49.255
-0.734,-0.482,-0.164,-50.964,-15.991,41.016
-0.202,-0.865,-0.364,-59.082,-7.263,-9.338
-0.016,-1.121,-0.062,-21.362,-23.499,-34.485
-0.023,-0.868,0.172,-9.216,-34.851,-27.161
-0.069,-0.795,0.130,-13.855,-28.564,-20.325
-0.103,-0.882,0.101,-11.108,-19.104,-18.188
-0.144,-0.977,0.093,-6.348,-11.169,-14.343
-0.174,-1.027,0.048,-8.240,-5.005,-8.301
-0.196,-1.043,0.005,-14.893,-1.953,-3.662
-0.202,-1.039,-0.023,-19.592,-1.221,-0.427
-0.204,-1.024,-0.078,-18.738,-1.099,2.380
-0.195,-1.034,-0.077,-13.672,-4.150,3.479
-0.192,-1.036,-0.006,-5.981,-8.728,4.150
-0.200,-1.047,0.088,3.174,-10.254,4.517
-0.204,-1.063,0.124,9.888,-5.554,4.089
-0.194,-1.064,0.073,11.230,1.892,2.625
-0.180,-1.047,0.006,9.583,6.104,0.549
-0.175,-1.016,-0.023,8.545,5.737,-0.916
-0.177,-0.991,-0.046,9.155,3.723,-1.160
-0.178,-0.969,-0.064,9.766,1.709,-0.549
-0.184,-0.953,-0.059,9.277,0.122,-0.061
-0.184,-0.951,-0.043,9.460,-1.465,0.244
-0.187,-0.946,-0.020,8.545,-2.747,0.488
-0.194,-0.952,-0.009,5.737,-3.052,1.526
-0.202,-0.968,-0.012,2.441,-3.235,2.563
-0.212,-0.988,-0.015,-0.061,-4.272,3.357
-0.217,-1.002,-0.024,-2.563,-4.822,3.967
-0.222,-1.018,-0.031,-4.700,-5.432,4.272
-0.221,-1.029,-0.035,-6.348,-6.287,4.089
-0.214,-1.025,-0.022,-6.653,-6.348,4.150
-0.209,-1.029,-0.013,-6.165,-5.676,3.601
-0.203,-1.032,-0.005,-5.676,-4.578,2.869
-0.202,-1.036,-0.004,-4.761,-2.930,1.892
-0.189,-1.030,-0.003,-2.869,-1.404,1.282
-0.199,-1.044,0.008,0.244,1.404,1.099
-0.193,-1.035,0.001,-3.052,5.737,0.183
-0.189,-1.025,-0.034,-3.235,5.371,-1.526
-0.192,-1.016,-0.024,-2.808,3.784,-2.502
-0.199,-0.998,-0.026,-2.441,2.075,-2.441
-0.196,-0.988,-0.025,-1.587,1.282,-2.319
-0.201,-0.984,-0.018,-0.793,0.061,-1.831
-0.199,-0.980,-0.009,0.122,-0.793,-1.282
-0.196,-0.979,-0.001,0.366,-1.404,-0.793
-0.194,-0.976,-0.008,-0.122,-1.465,-0.122
-0.189,-0.974,-0.012,-0.610,-1.404,0.488
-0.187,-0.980,-0.007,-0.977,-1.892,0.610
-0.187,-0.991,-0.006,-2.014,-2.258,0.549
-0.186,-1.000,-0.012,-3.113,-2.197,0.305
-0.185,-1.006,-0.024,-4.028,-2.014,-0.061
-0.184,-1.006,-0.031,-4.395,-2.014,-0.427
-0.181,-1.003,-0.034,-4.456,-1.953,-1.038
-0.182,-0.997,-0.031,-4.517,-2.258,-1.282
-0.181,-0.996,-0.026,-4.333,-2.197,-1.099
-0.188,-0.997,-0.013,-3.540,-2.563,-0.549
-0.193,-0.999,0.001,-2.686,-2.747,-0.366
-0.197,-1.000,0.008,-2.258,-2.380,-0.427
-0.198,-0.999,0.007,-2.075,-2.136,-0.854
-0.190,-0.999,-0.000,-1.953,-1.892,-1.404
-0.193,-0.998,-0.009,-1.465,-1.465,-1.404
-0.193,-0.992,-0.015,-0.549,-1.526,-1.221
-0.195,-0.993,-0.017,0.366,-1.526,-0.793
-0.196,-0.999,-0.020,0.916,-1.343,-0.305
-0.198,-1.000,-0.019,1.343,-1.099,0.183
-0.200,-1.002,-0.019,1.404,-0.610,0.427
-0.200,-1.003,-0.018,1.282,-0.488,0.488
-0.200,-1.006,-0.013,0.977,-0.427,0.366
-0.198,-1.007,-0.010,0.610,-0.549,0.183
-0.197,-1.005,-0.006,0.122,-0.854,-0.244
-0.196,-1.002,-0.007,-0.610,-1.160,-0.488
-0.196,-1.002,-0.007,-0.916,-1.282,-0.977
-0.196,-1.002,-0.012,-0.793,-1.282,-1.221
-0.195,-0.999,-0.012,-0.488,-1.587,-1.160
-0.195,-0.996,-0.013,0.122,-1.587,-1.038
-0.196,-0.995,-0.012,0.305,-1.282,-1.038
-0.196,-0.996,-0.014,0.488,-0.854,-0.977
-0.197,-0.997,-0.011,0.671,-0.549,-0.916
-0.197,-1.000,-0.013,0.671,-0.427,-0.671
-0.194,-1.001,-0.014,0.610,-0.488,-0.671
-0.193,-1.001,-0.014,0.488,-0.732,-0.366
-0.190,-1.006,-0.009,0.305,-1.160,-0.122
-0.191,-1.006,-0.007,0.122,-1.221,-0.061
-0.192,-1.001,-0.009,-0.122,-0.916,-0.122
-0.191,-1.001,-0.009,0.122,-0.671,-0.061
-0.191,-1.001,-0.008,0.549,-0.854,-0.305
-0.193,-1.001,-0.011,0.427,-0.732,-0.549
-0.195,-0.999,-0.015,-0.122,-0.549,-0.916
-0.194,-0.999,-0.021,-0.793,-0.793,-1.282
-0.194,-0.993,-0.021,-1.221,-1.038,-1.709
-0.196,-0.989,-0.017,-1.465,-1.221,-1.648
-0.197,-0.983,-0.011,-1.587,-1.160,-1.038
-0.196,-0.988,-0.009,-1.831,-1.282,-0.610
-0.199,-0.996,-0.000,-1.526,-1.282,-0.061
-0.201,-0.997,0.001,-1.038,-0.610,0.549
-0.203,-1.001,0.004,-0.732,-0.183,0.610
-0.202,-1.005,0.004,-0.305,0.183,0.671
-0.197,-1.007,-0.005,-0.610,0.793,0.183
-0.195,-1.009,-0.012,-0.671,0.977,-0.366
-0.192,-1.008,-0.021,-0.854,0.549,-0.671
-0.190,-1.006,-0.031,-1.099,0.061,-0.854
-0.191,-1.004,-0.032,-1.099,-0.671,-0.854
-0.195,-1.000,-0.029,-1.221,-1.282,-0.793
-0.201,-0.998,-0.019,-1.465,-1.648,-0.549
-0.203,-0.994,-0.009,-1.221,-1.404,-0.305
-0.200,-0.992,-0.004,-1.221,-0.610,-0.061
-0.199,-0.993,0.003,-0.671,0.122,0.061
-0.197,-1.001,0.001,-0.305,0.610,0.366
-0.196,-1.006,-0.003,-0.366,1.038,0.610
-0.195,-1.008,-0.010,-0.488,1.099,0.671
-0.192,-1.009,-0.014,-0.732,0.854,0.061
-0.191,-1.003,-0.016,-0.977,0.671,-0.305
-0.192,-1.000,-0.012,-1.160,0.244,-0.488
-0.193,-0.998,-0.009,-1.160,-0.061,-0.854
-0.195,-0.992,-0.002,-1.587,-0.671,-1.282
-0.196,-0.985,-0.004,-1.953,-1.038,-1.465
-0.196,-0.981,-0.010,-2.014,-1.038,-1.160

0.795,-2.783,0.522,269.714,178.345,-97.107
0.070,-0.233,-1.054,-190.552,144.165,-3.967
-0.335,-1.188,-0.707,-42.786,13.184,22.766
-1.335,-0.649,-0.096,2.197,-37.903,66.223
-0.705,-0.432,-0.172,-69.824,-24.353,40.222
-0.180,-1.151,-0.341,-67.200,-13.733,-24.780
-0.000,-1.158,0.198,-28.931,-26.062,-38.452
-0.006,-0.761,0.073,-19.165,-25.574,-24.109
-0.054,-0.716,0.142,-11.902,-24.292,-20.325
-0.102,-0.901,0.253,3.296,-21.912,-20.325
-0.156,-1.003,0.292,7.385,-6.287,-14.648
-0.186,-1.046,0.106,-7.385,15.076,-7.812
-0.208,-1.047,-0.145,-26.428,25.391,-4.333
-0.203,-1.039,-0.189,-33.386,17.029,-2.686
-0.215,-1.040,-0.140,-27.039,4.150,0.977
-0.228,-1.053,-0.063,-17.700,-4.211,4.700
-0.225,-1.060,0.007,-8.606,-8.545,7.141
-0.228,-1.071,0.089,1.343,-10.010,8.179
-0.233,-1.082,0.133,8.850,-7.751,7.629
-0.225,-1.083,0.122,11.414,-2.014,5.859
-0.205,-1.067,0.066,9.888,3.967,3.174
-0.188,-1.038,0.002,7.385,6.653,0.977
-0.186,-1.001,-0.031,6.653,5.066,0.549
-0.191,-0.993,-0.043,8.301,1.587,0.977
-0.197,-0.978,-0.043,10.010,-1.160,1.953
-0.202,-0.975,-0.035,10.254,-3.540,2.319
-0.203,-0.974,-0.012,8.789,-5.798,2.075
-0.203,-0.977,0.002,6.348,-6.958,1.953
-0.205,-0.964,0.012,3.906,-6.897,2.319
-0.207,-0.974,0.008,1.648,-6.592,2.563
-0.213,-0.984,-0.010,-0.793,-5.737,2.869
-0.214,-1.000,-0.016,-2.930,-5.066,3.174
-0.218,-1.012,-0.022,-4.761,-4.272,3.601
-0.223,-1.028,-0.023,-6.409,-3.845,3.845
-0.219,-1.026,-0.017,-7.019,-4.028,3.601
-0.216,-1.039,-0.013,-7.324,-4.028,2.991
-0.210,-1.029,-0.013,-7.507,-3.967,2.502
-0.207,-1.028,-0.006,-6.165,-4.028,2.014
-0.206,-1.023,0.025,-4.211,-3.418,1.038
-0.203,-1.021,0.020,-2.930,-1.099,0.061
-0.200,-1.004,0.016,-1.953,0.916,-0.549
-0.199,-0.997,0.012,-0.366,1.953,-1.526
-0.201,-0.995,-0.002,0.610,2.380,-2.441
-0.196,-0.994,-0.005,1.526,1.892,-2.380
-0.198,-0.988,-0.019,1.465,1.282,-1.770
-0.197,-0.985,-0.026,0.732,-0.061,-1.343
-0.196,-0.986,-0.027,-0.061,-1.404,-0.854
-0.198,-0.982,-0.016,-0.427,-2.563,0.000
-0.201,-0.984,-0.002,-1.038,-3.601,0.244
-0.203,-0.984,0.005,-2.563,-3.967,0.793
-0.200,-0.978,0.002,-4.395,-4.333,0.916
-0.200,-0.980,0.011,-4.822,-4.761,0.305
-0.197,-0.981,0.012,-4.822,-4.517,-0.122
-0.192,-0.986,0.002,-5.249,-3.662,-0.305
-0.189,-0.998,-0.001,-4.456,-2.991,-0.305
-0.188,-1.002,-0.005,-3.418,-2.319,0.061
-0.187,-1.019,-0.015,-2.625,-1.587,0.366
-0.190,-1.001,-0.011,-1.465,-1.465,1.038
-0.192,-1.012,0.000,-1.099,-1.709,0.977
-0.195,-1.009,0.001,-0.977,-1.892,0.366
-0.197,-0.998,0.004,-1.221,-1.953,0.427
-0.197,-0.994,0.000,-0.977,-2.075,0.122
-0.198,-0.990,0.007,-0.305,-2.380,-0.183
-0.200,-0.985,0.007,0.061,-2.075,-0.183
-0.201,-0.985,0.007,0.488,-1.831,-0.244
-0.202,-0.987,0.006,0.854,-1.526,-0.305
-0.203,-0.989,0.004,0.793,-1.465,-0.122
-0.204,-0.992,0.002,0.854,-1.709,-0.183
-0.206,-0.995,-0.000,0.671,-1.465,-0.061
-0.206,-0.998,-0.003,0.610,-1.160,0.122
-0.203,-0.998,-0.006,0.488,-1.038,0.122
-0.201,-1.000,-0.007,0.793,-1.038,0.061
-0.198,-1.001,-0.003,1.099,-0.793,0.122
-0.193,-1.004,-0.000,1.160,-0.610,0.000
-0.191,-1.003,0.000,0.916,-0.610,-0.244
-0.191,-1.001,0.001,0.610,-0.488,-0.427
-0.193,-1.002,0.000,0.488,-0.305,-0.671
-0.196,-1.000,0.001,0.488,-0.244,-0.610
-0.202,-0.999,0.005,0.427,-0.061,-0.366
-0.203,-0.999,0.009,0.366,-0.061,-0.305
-0.204,-0.998,0.005,0.122,-0.061,-0.427
-0.203,-1.001,0.001,-0.183,-0.488,-0.671
-0.203,-1.001,-0.006,-0.793,-1.099,-0.549
-0.201,-0.995,-0.008,-0.854,-1.709,-0.366
-0.197,-0.996,-0.007,-0.610,-2.197,-0.244
-0.196,-0.997,-0.004,-0.549,-1.953,0.122
-0.204,-0.997,-0.000,-0.549,-1.465,0.488
-0.196,-0.998,-0.009,-0.732,-1.221,0.488
-0.199,-1.002,0.011,-1.099,-1.587,-0.122
-0.197,-1.000,0.008,-2.014,-0.977,-0.549
-0.195,-0.999,-0.001,-2.808,-0.427,-1.160
-0.196,-0.999,-0.005,-3.113,-0.488,-1.709
-0.195,-0.996,-0.009,-2.869,-0.427,-1.892
-0.197,-0.997,-0.009,-2.197,-0.488,-1.465
-0.198,-0.986,-0.012,-1.099,-0.916,-0.854
-0.200,-0.993,-0.005,-0.427,-1.465,-0.488
-0.206,-0.993,0.000,-0.122,-1.282,0.244
-0.206,-0.996,0.002,-0.366,-0.916,0.366
-0.205,-1.000,0.006,-0.732,-0.671,0.305
-0.205,-1.001,0.008,-0.793,-0.244,0.183
-0.202,-1.002,0.007,-1.160,0.549,0.244
-0.202,-1.006,0.001,-1.465,0.549,-0.183
-0.200,-1.009,-0.005,-1.465,0.305,-0.305
-0.200,-1.008,-0.011,-1.526,-0.061,-0.427
-0.202,-1.006,-0.012,-1.282,-0.793,-0.427
-0.202,-1.005,-0.009,-1.221,-1.709,-0.366
-0.202,-1.000,-0.001,-1.099,-2.441,-0.366
-0.204,-0.998,0.005,-0.854,-2.930,-0.244
-0.205,-0.997,0.008,-0.854,-2.930,-0.061
-0.208,-0.995,0.009,-1.282,-2.502,0.000
-0.206,-0.992,0.002,-2.014,-1.709,-0.183
-0.205,-0.997,0.001,-2.014,-1.343,-0.488
-0.203,-0.995,0.001,-2.136,-0.977,-0.610
-0.202,-0.995,0.004,-1.892,-0.854,-0.427
-0.200,-0.995,0.006,-1.221,-0.610,-0.244
-0.197,-0.994,0.006,-0.854,-0.549,0.061
-0.196,-0.995,0.008,-0.488,-0.305,0.000
-0.194,-0.995,0.004,-0.244,-0.183,0.061
-0.192,-0.996,-0.000,-0.305,-0.305,-0.122

-0.432,-1.985,-1.417,253.784,419.922,-37.781
0.159,-1.171,-1.363,-95.947,152.832,-48.828
-0.437,-0.986,0.723,88.379,-69.397,1.892
-1.355,-0.394,-0.120,34.363,-18.921,76.477
-0.593,-0.949,-0.236,-43.945,11.414,48.584
-0.131,-1.226,-0.161,-56.335,2.747,-3.357
0.104,-1.116,-0.087,-29.236,-7.202,-27.832
0.023,-0.979,-0.016,-20.325,-9.705,-36.682
-0.065,-0.873,0.152,-15.625,-13.489,-34.485
-0.095,-0.932,0.153,-3.906,-10.376,-28.870
-0.142,-1.011,0.063,9.094,1.343,-23.315
-0.189,-1.033,-0.009,7.263,8.301,-15.869
-0.200,-1.055,-0.079,-7.507,8.728,-9.705
-0.217,-1.027,-0.120,-19.104,7.690,-3.601
-0.218,-1.002,-0.124,-20.264,4.578,0.610
-0.213,-1.023,-0.087,-13.306,-0.916,2.869
-0.205,-1.051,-0.016,-4.700,-6.592,2.808
-0.213,-1.061,0.042,2.563,-9.277,2.136
-0.210,-1.070,0.067,8.484,-8.606,0.488
-0.205,-1.063,0.057,10.498,-5.615,-1.404
-0.189,-1.036,0.016,9.216,-2.808,-3.052
-0.181,-1.009,-0.018,7.324,-2.136,-3.723
-0.188,-0.990,-0.058,6.592,-3.296,-3.418
-0.188,-0.976,-0.071,6.226,-4.456,-3.113
-0.182,-0.966,-0.081,5.676,-4.761,-2.686
-0.179,-0.951,-0.067,5.005,-5.188,-2.197
-0.175,-0.941,-0.047,4.150,-5.554,-2.014
-0.172,-0.937,-0.042,2.869,-5.249,-1.221
-0.180,-0.946,-0.043,1.953,-5.737,-0.122
-0.192,-0.955,-0.014,1.160,-6.836,0.977
-0.202,-0.969,-0.007,-1.160,-5.371,1.892
-0.209,-0.981,-0.020,-4.089,-2.808,2.747
-0.210,-0.994,-0.036,-6.104,-1.465,3.052
-0.208,-1.000,-0.046,-7.202,-1.038,3.662
-0.204,-1.011,-0.062,-7.874,-1.099,3.906
-0.197,-1.015,-0.065,-6.958,-2.197,3.723
-0.197,-1.020,-0.051,-4.333,-3.479,3.418
-0.197,-1.027,-0.053,-2.502,-3.418,3.296
-0.199,-1.028,-0.043,-0.366,-3.113,2.869
-0.203,-1.021,-0.029,1.587,-3.235,2.563
-0.206,-1.012,-0.021,2.747,-3.418,1.892
-0.207,-1.009,-0.015,2.502,-3.479,1.221
-0.205,-1.000,-0.026,0.305,-3.174,0.427
-0.204,-0.996,-0.048,-1.404,-2.869,-0.305
-0.198,-0.992,-0.055,-2.136,-3.662,-0.671
-0.197,-0.993,-0.060,-2.319,-4.456,-0.427
-0.195,-0.994,-0.059,-1.831,-4.883,-0.061
-0.193,-0.999,-0.056,-1.465,-5.310,0.549
-0.188,-0.997,-0.048,-1.343,-5.920,1.221
-0.194,-1.001,-0.027,-1.160,-6.287,1.526
-0.193,-1.003,-0.028,-2.319,-5.554,1.526
-0.190,-1.001,-0.033,-3.052,-4.883,1.526
-0.191,-0.998,-0.036,-3.052,-4.639,1.526
-0.186,-1.001,-0.042,-2.686,-4.150,1.221
-0.189,-1.000,-0.038,-2.319,-3.418,1.160
-0.192,-0.992,-0.030,-2.625,-2.991,0.916
-0.190,-0.995,-0.023,-2.625,-2.319,0.244
-0.184,-0.994,-0.028,-2.808,-1.343,-0.549
-0.184,-0.994,-0.033,-3.113,-0.977,-0.977
-0.184,-0.994,-0.037,-2.991,-0.916,-0.916
-0.184,-0.995,-0.047,-2.686,-1.038,-0.793
-0.185,-1.000,-0.050,-1.953,-1.343,-0.610
-0.189,-1.000,-0.038,-0.732,-2.319,-0.366
-0.191,-1.001,-0.026,0.122,-3.113,0.183
-0.191,-0.999,-0.028,0.793,-3.235,0.610
-0.192,-0.999,-0.028,1.526,-3.296,1.038
-0.193,-0.995,-0.030,1.648,-2.808,1.282
-0.193,-0.992,-0.021,1.953,-2.502,1.404
-0.193,-0.999,-0.019,2.258,-1.648,1.465
-0.196,-0.997,-0.031,2.014,-0.793,1.526
-0.195,-1.000,-0.048,0.854,0.000,1.160
-0.194,-1.010,-0.027,1.099,-0.183,0.000
-0.188,-1.005,-0.031,0.366,0.366,-0.366
-0.186,-1.006,-0.050,-0.977,0.427,-0.916
-0.185,-1.013,-0.046,-1.038,-0.488,-1.221
-0.186,-1.014,-0.042,-0.916,-1.038,-1.038
-0.189,-1.009,-0.036,-0.671,-1.221,-0.732
-0.195,-1.004,-0.029,0.000,-1.465,-0.854
-0.197,-1.001,-0.030,0.488,-1.038,-0.854
-0.198,-0.999,-0.032,0.793,-0.671,-1.099
-0.195,-1.000,-0.033,1.160,-0.488,-1.282
-0.195,-0.999,-0.035,1.038,-0.610,-1.221
-0.194,-1.000,-0.040,0.488,-0.366,-0.977
-0.193,-1.001,-0.041,-0.122,-0.427,-0.793
-0.193,-1.005,-0.038,-0.122,-1.038,-0.671
-0.195,-1.005,-0.034,-0.366,-1.221,-0.793
-0.196,-1.003,-0.034,-0.610,-1.160,-1.160
-0.195,-1.001,-0.038,-0.977,-0.916,-1.770
-0.192,-0.993,-0.039,-0.793,-0.732,-2.075
-0.188,-0.990,-0.043,-0.549,-0.549,-1.953
-0.188,-0.991,-0.045,-0.305,-0.549,-1.526
-0.189,-0.992,-0.044,-0.122,-0.671,-1.343
-0.191,-0.995,-0.040,-0.122,-1.038,-1.099
-0.192,-0.998,-0.033,-0.244,-1.221,-0.854
-0.192,-1.000,-0.034,-0.305,-0.977,-0.671
-0.192,-1.000,-0.040,-0.854,-0.732,-0.610
-0.194,-0.997,-0.042,-1.160,-0.854,-0.427
-0.194,-1.000,-0.041,-1.343,-0.916,-0.488
-0.194,-1.000,-0.042,-1.221,-0.977,-0.244
-0.196,-0.998,-0.039,-1.038,-1.282,-0.183
-0.199,-0.999,-0.034,-0.793,-1.343,-0.183
-0.201,-0.998,-0.032,-0.549,-0.854,-0.061
-0.200,-0.996,-0.029,-0.671,-0.305,-0.183
-0.197,-1.000,-0.032,-0.732,0.122,-0.549
-0.192,-1.001,-0.043,-0.854,0.549,-0.549
-0.190,-1.001,-0.052,-1.282,0.427,-0.549
-0.188,-0.998,-0.056,-1.648,-0.061,-0.366
-0.189,-0.996,-0.049,-1.587,-0.793,-0.305
-0.190,-0.994,-0.037,-1.221,-1.282,-0.366
-0.193,-0.994,-0.029,-0.977,-1.160,-0.427
-0.195,-0.998,-0.024,-1.038,-0.916,-0.366
-0.194,-1.000,-0.024,-1.404,-0.610,-0.183
-0.195,-1.001,-0.028,-1.648,-0.122,-0.305
-0.196,-1.001,-0.033,-1.831,-0.061,-0.366
-0.196,-1.001,-0.039,-1.709,-0.183,-0.183
-0.196,-1.002,-0.045,-1.282,-0.488,0.061
-0.197,-1.001,-0.047,-0.671,-0.793,0.305
-0.197,-1.001,-0.044,-0.488,-1.099,0.427
-0.196,-1.005,-0.041,-0.244,-1.160,0.366

-0.930,-0.859,3.198,-397.095,-101.990,-65.491
-0.149,-1.449,3.172,-236.145,-294.373,-46.448
-0.996,-1.477,1.590,-79.407,-177.185,-74.280
-0.791,-0.595,0.770,35.095,-87.524,-45.410
-0.568,-0.393,-0.589,18.127,-1.587,-8.850
-0.028,-0.789,-0.852,-19.287,19.714,3.418
0.112,-0.735,-0.179,-55.420,16.174,3.052
0.057,-0.813,0.635,-53.406,18.127,8.789
0.042,-0.832,0.703,7.996,21.118,23.376
-0.010,-0.938,0.204,63.660,25.879,30.029
0.008,-0.939,-0.098,77.942,8.545,26.978
-0.077,-0.923,-0.166,59.509,2.258,15.991
-0.179,-0.879,-0.161,17.212,16.479,2.380
-0.235,-0.897,-0.068,-12.756,29.419,-8.484
-0.346,-0.818,0.193,-25.391,36.072,-12.634
-0.281,-0.871,0.122,-5.981,25.330,-3.113
-0.284,-0.898,0.005,9.338,19.653,7.568
-0.271,-0.919,-0.010,10.986,15.015,15.198
-0.245,-1.008,-0.028,14.954,12.939,18.250
-0.207,-1.039,-0.015,11.597,11.658,17.700
-0.197,-1.096,0.002,2.380,8.179,14.038
-0.173,-1.089,0.003,-6.042,2.625,10.071
-0.183,-1.078,0.022,-12.634,-3.967,5.554
-0.194,-1.071,0.039,-20.508,-7.751,-0.977
-0.217,-1.048,0.055,-25.635,-8.301,-7.507
-0.226,-1.029,0.096,-25.635,-6.775,-12.939
-0.236,-1.008,0.103,-21.484,-4.211,-15.259
-0.242,-1.004,0.161,-15.869,-2.563,-15.076
-0.244,-0.992,0.174,-10.498,-0.183,-13.550
-0.258,-0.989,0.187,-6.592,3.113,-11.719
-0.260,-0.980,0.189,-3.723,5.676,-9.521
-0.249,-0.972,0.163,-1.587,8.118,-7.324
-0.242,-0.960,0.158,-0.610,8.240,-5.066
-0.250,-0.955,0.125,1.709,6.226,-2.930
-0.257,-0.946,0.073,4.028,2.930,-1.343
-0.262,-0.948,0.026,5.249,-0.610,0.610
-0.259,-0.966,-0.001,5.066,-3.052,1.526
-0.246,-0.981,-0.011,5.676,-4.272,1.587
-0.234,-0.980,-0.001,5.798,-4.333,1.892
-0.226,-0.983,0.020,4.272,-3.479,1.465
-0.214,-0.984,0.038,2.869,-2.502,0.549
-0.200,-0.989,0.055,1.892,-1.526,-0.427
-0.189,-0.974,0.065,0.854,-0.305,-1.709
-0.181,-0.960,0.068,-1.038,1.465,-2.991
-0.177,-0.945,0.086,-2.441,2.686,-3.662
-0.180,-0.928,0.092,-2.441,3.723,-3.601
-0.180,-0.919,0.094,-0.671,3.418,-2.502
-0.182,-0.921,0.088,0.427,2.319,-1.099
-0.193,-0.927,0.089,-0.488,1.831,0.610
-0.201,-0.935,0.084,-0.427,1.099,2.441
-0.207,-0.942,0.083,0.610,0.427,4.089
-0.216,-0.946,0.090,1.404,0.488,5.432
-0.221,-0.950,0.082,2.014,0.854,6.042
-0.225,-0.951,0.074,1.953,1.343,6.042
-0.228,-0.950,0.054,1.221,1.648,5.249
-0.224,-0.958,0.040,0.427,1.465,5.066
-0.220,-0.975,0.042,1.160,1.282,5.005
-0.213,-0.982,0.034,2.502,0.732,5.249
-0.212,-0.989,0.048,2.502,0.916,5.310
-0.211,-1.001,0.063,1.770,0.488,5.066
-0.207,-1.004,0.073,2.075,0.183,4.272
-0.208,-1.001,0.076,1.831,0.122,3.418
-0.211,-1.000,0.073,0.549,0.244,2.197
-0.215,-0.997,0.069,-1.648,0.183,0.793
-0.220,-0.985,0.063,-2.380,0.122,-0.366
-0.219,-0.970,0.053,-1.526,0.122,-0.427
-0.224,-0.971,0.059,-1.282,-0.549,0.183
-0.231,-0.968,0.065,-0.793,-1.099,1.038
-0.232,-0.965,0.073,0.366,-0.488,1.892
-0.229,-0.971,0.083,1.282,0.916,2.197
-0.228,-0.973,0.095,1.099,2.014,2.258
-0.226,-0.974,0.095,0.732,2.380,1.953
-0.222,-0.974,0.086,0.427,2.930,1.221
-0.222,-0.975,0.083,0.732,3.235,0.671
-0.217,-0.987,0.074,2.258,3.540,0.488
-0.214,-0.991,0.070,4.333,3.418,0.854
-0.209,-0.991,0.078,6.531,2.319,1.648
-0.206,-1.001,0.067,9.277,1.099,2.380
-0.207,-1.001,0.078,11.414,-0.061,3.113
-0.204,-0.998,0.075,11.963,-0.427,2.930
-0.203,-0.986,0.082,10.010,0.244,2.319
-0.207,-0.976,0.081,7.202,1.343,1.526
-0.208,-0.970,0.070,4.700,2.136,0.977
-0.207,-0.965,0.054,3.540,1.892,1.099
-0.207,-0.964,0.039,3.113,1.465,1.587
-0.214,-0.966,0.033,2.808,1.038,1.953
-0.221,-0.972,0.041,3.052,1.221,2.441
-0.224,-0.975,0.050,3.845,2.014,2.991
-0.224,-0.977,0.065,5.676,3.052,3.662
-0.221,-0.976,0.082,7.690,3.662,4.150
-0.184,-0.993,0.111,8.667,4.456,4.639
-0.214,-0.970,0.092,8.545,5.432,5.615
-0.210,-0.988,0.105,9.521,3.540,5.127
-0.194,-0.963,0.070,9.216,1.892,4.822
-0.212,-0.981,0.076,10.742,-0.549,4.395
-0.202,-0.976,0.069,11.658,-2.014,3.662
-0.197,-0.985,0.060,12.817,-3.052,3.540
-0.203,-0.987,0.070,13.428,-3.418,4.089
-0.204,-0.982,0.064,13.794,-2.930,5.188
-0.204,-1.001,0.056,16.418,-2.991,6.042
-0.202,-0.995,0.077,19.409,-4.456,7.202
-0.213,-1.001,0.091,22.156,-5.798,7.629
-0.218,-0.983,0.100,21.973,-6.287,7.629
-0.226,-0.947,0.202,13.062,-5.005,5.249
-0.209,-0.997,0.042,-2.686,-0.366,1.404
-0.243,-0.997,0.143,-4.211,-4.211,2.625
-0.230,-1.000,0.065,0.061,-5.066,2.991
-0.230,-0.995,0.084,7.202,-6.775,3.662
-0.224,-0.979,0.109,10.132,-7.996,4.761
-0.227,-0.974,0.126,9.216,-7.324,4.944
-0.227,-0.972,0.137,7.080,-6.958,4.517
-0.232,-0.970,0.147,6.104,-7.812,3.418
-0.227,-0.971,0.133,5.127,-8.728,2.014
-0.232,-0.965,0.147,5.249,-10.864,1.099
-0.238,-0.958,0.155,4.578,-13.306,0.671
-0.234,-0.961,0.150,1.404,-15.442,0.122
-0.234,-0.977,0.149,-0.977,-17.334,0.916
-0.234,-0.993,0.143,-0.061,-18.921,2.258
-0.229,-0.997,0.135,3.723,-20.935,4.028

-2.555,-2.314,3.772,-294.250,134.155,-66.345
-2.534,-2.462,4.000,144.104,-167.114,5.310
-2.169,0.597,0.926,113.464,-14.221,68.115
-0.628,-0.203,-0.625,-38.269,69.214,147.461
0.474,-1.735,-3.079,33.997,-20.386,7.141
1.019,-1.120,-1.199,-1.648,-30.701,-32.166
0.276,-0.523,-0.117,10.437,28.137,-19.653
0.689,-0.294,-0.877,-118.225,50.110,-40.283
-0.330,-0.748,1.892,-157.288,39.856,-53.894
-0.539,-1.314,0.888,-14.282,52.917,-39.795
-0.347,-0.724,0.197,87.708,-9.888,5.615
-0.234,-0.706,-0.028,36.377,-26.733,19.348
-0.152,-1.023,-0.043,-14.954,-0.122,17.395
-0.128,-0.999,0.174,-8.362,16.479,10.071
-0.121,-0.995,0.144,30.212,8.728,6.348
-0.155,-0.979,0.108,40.283,-0.854,2.686
-0.221,-0.993,0.082,24.048,-1.587,-1.038
-0.250,-1.014,0.097,15.686,-0.366,-4.822
-0.220,-1.000,0.079,13.855,0.854,-7.019
-0.184,-0.997,0.019,9.949,1.770,-4.456
-0.140,-1.004,-0.003,1.709,2.014,-2.930
-0.115,-0.996,0.005,-4.456,3.418,-2.930
-0.115,-0.977,0.040,-8.057,5.188,-3.174
-0.131,-0.977,0.070,-9.705,6.897,-3.784
-0.165,-0.987,0.086,-9.583,9.277,-4.639
-0.194,-0.995,0.105,-9.644,10.986,-5.554
-0.205,-0.999,0.129,-9.583,10.986,-6.165
-0.204,-0.994,0.114,-9.216,8.728,-5.371
-0.207,-0.999,0.090,-8.362,4.700,-3.418
-0.205,-1.003,0.056,-6.531,0.793,-1.770
-0.199,-1.004,0.040,-5.066,-1.587,-0.549
-0.193,-1.020,0.034,-3.723,-1.465,0.122
-0.193,-1.031,0.040,-2.625,0.183,-0.244
-0.190,-1.033,0.064,-2.625,2.625,-1.648
-0.185,-1.023,0.088,-3.601,4.395,-3.357
-0.182,-1.006,0.102,-4.028,4.700,-5.493
-0.177,-0.978,0.097,-4.089,3.784,-6.653
-0.183,-0.960,0.092,-4.211,2.319,-6.348
-0.157,-0.958,0.070,-4.150,0.244,-5.676
-0.154,-0.960,0.062,-2.197,-1.709,-4.272
-0.155,-0.961,0.034,-0.671,-3.784,-2.502
-0.158,-0.960,0.023,0.061,-4.944,-1.770
-0.165,-0.954,0.031,0.000,-4.272,-1.648
-0.178,-0.954,0.051,-1.465,-1.831,-1.282
-0.193,-0.963,0.071,-1.038,0.732,-0.793
-0.199,-0.968,0.078,0.183,2.563,-0.793
-0.189,-0.946,0.086,1.282,2.747,-1.648
-0.187,-0.952,0.078,1.892,2.197,-2.319
-0.188,-0.971,0.063,2.258,1.465,-2.258
-0.168,-0.942,0.103,5.798,0.000,-0.122
-0.176,-0.986,0.064,12.573,-2.563,1.709
-0.162,-0.984,0.053,14.099,-4.517,5.066
-0.163,-0.993,0.064,11.475,-5.554,6.653
-0.160,-0.993,0.057,8.972,-6.042,6.104
-0.165,-0.980,0.047,6.348,-6.042,3.845
-0.177,-0.966,0.058,5.371,-6.165,1.587
-0.186,-0.965,0.059,6.592,-6.348,0.610
-0.191,-0.964,0.057,7.690,-7.202,0.427
-0.185,-0.982,0.075,8.850,-7.629,1.099
-0.183,-0.974,0.033,13.611,-5.066,2.136
-0.178,-0.982,0.001,16.357,-2.991,2.563
-0.174,-0.991,0.016,11.169,-3.296,2.319
-0.181,-0.987,0.024,5.737,-1.709,0.916
-0.183,-0.981,0.052,2.014,-0.977,-0.610
-0.201,-0.973,0.044,2.686,-1.160,-0.854
-0.185,-0.962,0.058,4.639,-2.686,1.038
-0.197,-0.984,0.041,9.521,-3.479,2.075
-0.191,-0.981,0.021,15.320,-4.028,3.357
-0.183,-0.984,0.026,15.747,-5.066,5.188
-0.175,-0.995,0.025,12.512,-6.104,6.592
-0.171,-1.000,0.019,9.888,-6.042,6.592
-0.179,-0.999,0.027,7.812,-5.371,5.005
-0.182,-0.994,0.023,5.859,-4.211,3.357
-0.185,-0.991,0.019,4.028,-3.113,2.319
-0.187,-0.988,0.015,2.380,-1.953,2.197
-0.194,-0.992,0.017,1.892,-0.916,2.625
-0.181,-0.991,0.032,3.357,-1.160,3.174
-0.179,-1.000,0.031,6.592,-1.770,2.991
-0.175,-0.984,0.050,10.132,-3.052,1.770
-0.163,-0.979,0.040,13.428,-4.395,0.977
-0.163,-0.985,0.034,13.245,-4.578,0.610
-0.163,-0.981,0.033,10.864,-3.784,0.549
-0.171,-0.971,0.024,8.850,-2.747,0.244
-0.179,-0.964,0.020,6.226,-2.075,0.366
-0.179,-0.961,0.019,3.845,-1.953,1.221
-0.180,-0.969,0.001,1.709,-2.197,2.747
-0.181,-0.973,-0.009,1.526,-2.319,4.700
-0.179,-0.973,-0.015,2.014,-2.197,6.165
-0.172,-0.984,-0.001,3.174,-2.319,7.141
-0.167,-0.993,0.003,4.272,-2.625,7.507
-0.167,-1.004,0.003,4.272,-3.174,7.141
-0.167,-1.006,0.019,4.150,-3.845,6.287
-0.166,-1.000,0.014,5.432,-3.479,5.188
-0.165,-1.001,0.016,5.981,-2.686,3.784
-0.168,-0.997,0.026,5.554,-2.319,2.991
-0.172,-0.992,0.016,5.798,-2.258,3.052
-0.174,-0.987,0.006,5.676,-2.258,3.418
-0.178,-0.982,0.001,4.700,-1.831,3.845
-0.181,-0.982,0.012,4.150,-1.160,4.456
-0.177,-0.981,0.017,4.822,-0.488,4.944
-0.175,-0.978,0.018,5.615,0.122,5.493
-0.179,-0.988,0.029,5.554,0.427,5.371
-0.169,-0.990,0.032,5.371,-0.122,5.127
-0.162,-0.990,0.022,5.676,-1.526,5.432
-0.163,-0.988,0.004,5.371,-2.075,5.981
-0.168,-1.005,-0.005,4.456,-2.380,6.165
-0.163,-0.999,-0.017,5.798,-3.052,6.531
-0.174,-1.005,-0.009,7.935,-3.784,6.592
-0.175,-1.014,0.000,10.132,-4.272,6.653
-0.164,-0.993,0.015,13.306,-6.104,7.751
-0.160,-0.992,0.027,14.038,-6.409,8.301
-0.161,-0.998,0.010,13.184,-5.737,7.202
-0.161,-1.010,-0.009,12.512,-5.676,6.348
-0.146,-0.959,0.015,11.230,-5.798,7.019
-0.153,-0.980,-0.022,9.888,-4.272,6.165
-0.158,-0.976,-0.026,7.141,-3.235,5.798
-0.158,-0.970,-0.036,4.822,-2.930,7.263
-0.162,-0.978,-0.021,2.930,-3.479,7.812
-0.163,-0.995,-0.019,3.235,-4.578,8.423

-0.285,-1.001,2.421,-110.413,135.559,-63.049
-0.382,-1.370,0.664,92.590,84.412,-28.748
-0.460,-0.644,1.089,36.011,-69.641,-13.000
-0.599,-0.647,0.484,0.305,-78.003,-7.446
-0.418,-0.844,0.336,-10.254,-34.241,-9.705
-0.243,-0.703,0.213,-6.287,-11.292,-9.216
-0.089,-0.664,0.097,9.949,-14.343,-3.845
-0.021,-0.716,-0.105,21.851,-16.052,10.559
-0.095,-0.776,-0.169,21.973,-16.724,22.583
-0.149,-0.835,-0.069,32.532,-17.395,27.283
-0.080,-0.866,-0.205,49.744,-14.648,30.151
-0.077,-0.911,-0.200,38.940,-5.005,32.715
-0.098,-0.951,-0.135,6.592,6.531,33.447
-0.220,-1.110,0.029,-17.517,20.386,25.391
-0.244,-1.091,0.033,-11.597,27.954,24.719
-0.205,-1.057,0.027,1.099,23.193,25.391
-0.206,-1.067,0.064,0.305,13.855,23.682
-0.210,-1.102,0.058,-5.249,7.629,21.667
-0.193,-1.130,0.072,-7.385,1.953,17.883
-0.186,-1.109,0.075,-7.080,-2.747,12.146
-0.184,-1.097,0.029,-7.385,-4.272,5.615
-0.187,-1.094,0.003,-7.446,-3.906,-0.427
-0.183,-1.053,-0.016,-6.226,-2.136,-3.235
-0.198,-1.018,-0.020,-6.226,0.000,-4.150
-0.220,-0.999,-0.015,-7.446,2.197,-3.052
-0.232,-0.989,-0.012,-6.226,2.441,-1.099
-0.235,-0.983,-0.037,-2.136,1.831,1.770
-0.234,-0.996,-0.025,0.488,0.000,3.845
-0.229,-1.013,-0.017,-1.099,-0.305,3.967
-0.214,-1.027,-0.011,-3.723,-0.183,2.380
-0.201,-1.037,-0.020,-5.249,0.549,0.549
-0.185,-1.039,-0.019,-6.958,0.854,-1.282
-0.172,-1.021,-0.013,-9.583,1.587,-2.380
-0.176,-1.011,-0.013,-11.963,1.587,-3.418
-0.192,-1.004,-0.015,-12.695,0.793,-4.822
-0.195,-0.991,-0.036,-11.597,0.610,-6.653
-0.195,-0.976,-0.052,-9.155,0.854,-7.568
-0.185,-0.967,-0.049,-5.798,1.160,-6.592
-0.180,-0.962,-0.026,-3.540,1.160,-4.822
-0.168,-0.956,-0.015,-2.197,1.465,-2.747
-0.162,-0.957,-0.002,-1.038,1.465,-1.831
-0.165,-0.957,0.002,-0.366,0.854,-1.465
-0.167,-0.952,-0.001,-0.671,0.610,-1.343
-0.173,-0.949,-0.001,-1.831,0.183,-1.160
-0.177,-0.958,0.000,-3.235,0.244,-1.160
-0.178,-0.966,-0.000,-3.662,0.671,-0.366
-0.181,-0.968,-0.001,-2.991,1.038,0.793
-0.186,-0.965,-0.000,-2.441,1.343,1.648
-0.196,-0.972,-0.004,-1.892,2.136,1.770
-0.192,-0.969,-0.004,-0.610,2.563,1.526
-0.192,-0.962,0.003,0.488,2.319,1.221
-0.192,-0.954,0.016,0.916,1.648,0.732
-0.161,-0.950,0.031,0.244,0.610,-0.122
-0.196,-0.965,-0.010,-2.075,1.099,-1.526
-0.188,-0.969,-0.006,-3.235,-0.488,-0.977
-0.184,-0.975,-0.026,-2.502,-1.221,0.244
-0.185,-0.987,-0.020,-0.916,-1.465,1.892
-0.187,-1.000,-0.022,1.587,-0.610,3.174
-0.188,-0.997,-0.009,3.418,0.671,3.540
-0.195,-0.997,0.018,3.906,1.892,2.686
-0.205,-0.994,0.036,2.441,3.418,1.404
-0.213,-0.993,0.043,0.000,4.150,0.305
-0.218,-0.993,0.041,-1.587,3.296,-0.732
-0.216,-0.992,0.026,-1.709,1.953,-0.732
-0.210,-0.990,0.011,-1.038,0.977,-0.183
-0.199,-0.989,-0.004,-0.122,0.366,0.732
-0.187,-0.990,-0.001,0.916,-0.244,1.465
-0.184,-0.992,-0.007,1.343,-0.488,1.953
-0.183,-0.985,0.008,0.854,-0.549,1.953
-0.187,-0.982,0.009,0.671,0.183,1.648
-0.192,-0.974,0.015,0.427,1.099,1.099
-0.197,-0.970,0.024,0.183,1.038,0.488
-0.198,-0.976,0.019,0.610,0.366,0.366
-0.196,-0.984,0.008,1.343,-0.671,1.038
-0.188,-0.985,-0.009,1.709,-1.465,1.831
-0.183,-0.995,-0.018,1.587,-1.831,2.014
-0.177,-0.998,-0.021,1.160,-1.404,2.136
-0.178,-0.989,-0.015,-0.122,-0.061,1.770
-0.184,-0.984,0.005,-1.465,1.526,0.427
-0.187,-0.974,0.020,-1.953,2.991,-0.671
-0.193,-0.967,0.026,-2.014,3.357,-1.221
-0.200,-0.972,0.021,-1.831,2.930,-1.465
-0.207,-0.979,0.014,-1.343,2.197,-1.282
-0.201,-0.983,0.008,-0.305,0.916,-0.366
-0.196,-0.987,-0.005,0.977,0.122,0.488
-0.187,-0.994,-0.015,1.953,-0.488,1.953
-0.184,-1.000,-0.014,3.052,-0.671,2.747
-0.182,-0.990,-0.006,2.869,0.183,2.686
-0.184,-0.986,0.012,1.282,1.587,1.770
-0.191,-0.987,0.024,-0.916,2.563,0.549
-0.197,-0.977,0.021,-2.319,2.991,-0.671
-0.198,-0.969,0.014,-2.258,2.563,-0.916
-0.198,-0.969,0.003,-1.343,1.648,-0.244
-0.193,-0.979,0.002,0.000,0.366,1.160
-0.191,-0.985,0.001,1.038,-0.305,2.441
-0.193,-0.996,0.003,1.526,-1.099,3.052
-0.193,-0.997,0.012,0.671,-1.343,2.441
-0.193,-0.993,0.017,-0.549,-1.038,1.343
-0.196,-0.987,0.020,-1.160,-0.732,0.244
-0.203,-0.977,0.018,-1.587,0.000,-0.549
-0.203,-0.975,0.007,-1.160,0.488,-0.488
-0.199,-0.977,-0.002,0.061,0.610,0.244
-0.191,-0.979,-0.013,1.038,-0.122,1.038
-0.184,-0.992,-0.011,1.465,-0.977,2.319
-0.179,-0.994,-0.015,0.916,-0.854,3.113
-0.182,-0.999,-0.002,0.610,-0.366,2.991
-0.183,-0.992,0.008,0.488,-0.061,2.136
-0.187,-0.988,0.018,-0.244,0.244,1.099
-0.194,-0.983,0.027,-1.221,0.549,-0.305
-0.201,-0.978,0.026,-1.099,0.916,-0.793
-0.205,-0.974,0.021,0.366,0.793,-0.793
-0.198,-0.973,0.009,1.526,0.549,-0.183
-0.194,-0.975,-0.000,2.319,0.549,1.038
-0.188,-0.985,-0.005,2.991,0.305,2.258
-0.186,-0.989,-0.007,3.296,-0.122,2.747
-0.187,-0.984,0.002,3.113,-0.610,2.808
-0.186,-0.983,0.012,2.014,-0.977,2.197
-0.189,-0.985,0.023,0.854,-1.221,1.343
-0.192,-0.985,0.026,0.549,-1.343,0.854

0.472,-1.863,-0.934,-67.200,152.588,-35.034
-0.329,-0.905,1.552,-32.288,-101.990,-10.559
-0.840,-0.847,-0.010,18.860,-82.764,0.671
-0.630,-0.842,0.346,9.705,-34.424,2.258
-0.250,-0.648,0.446,8.789,-6.470,0.732
-0.038,-0.737,0.135,27.649,-0.977,-3.662
0.097,-0.771,0.002,51.758,-10.193,7.385
0.022,-0.802,-0.058,52.917,-15.198,21.912
-0.063,-0.848,-0.052,34.485,-10.254,25.208
-0.047,-0.936,-0.144,25.574,0.305,21.851
-0.074,-0.998,-0.075,23.499,8.362,16.418
-0.124,-0.958,-0.059,11.169,17.883,9.949
-0.158,-1.032,0.027,-0.366,22.888,3.235
-0.198,-1.031,-0.007,-5.981,24.231,-0.549
-0.221,-0.990,0.040,-4.883,16.602,1.526
-0.207,-0.998,0.038,0.549,5.554,4.639
-0.213,-1.011,0.008,5.127,-1.404,7.751
-0.214,-1.016,0.016,7.568,-4.761,10.437
-0.193,-1.035,0.028,7.629,-7.080,10.254
-0.172,-1.056,0.036,4.944,-6.592,7.446
-0.158,-1.050,0.038,2.258,-4.333,4.578
-0.160,-1.036,0.022,-1.099,-2.502,2.014
-0.166,-1.022,-0.003,-4.150,-2.075,-0.244
-0.187,-1.004,-0.011,-6.287,-2.380,-1.099
-0.207,-0.991,-0.012,-6.287,-2.563,-0.610
-0.223,-0.989,-0.001,-4.944,-2.502,0.671
-0.224,-0.980,-0.006,-3.906,-1.282,2.380
-0.227,-0.990,-0.009,-2.197,0.549,3.967
-0.219,-0.995,-0.024,-0.671,2.380,5.432
-0.206,-1.005,-0.022,0.427,2.747,6.287
-0.195,-1.011,-0.026,1.953,1.892,6.409
-0.189,-1.024,-0.018,1.587,1.465,5.310
-0.186,-1.028,-0.013,-0.427,1.221,2.869
-0.183,-1.028,-0.010,-3.174,0.305,-0.061
-0.183,-1.019,-0.009,-4.883,-1.160,-1.892
-0.176,-1.009,-0.008,-5.981,-2.136,-2.502
-0.173,-0.999,-0.031,-7.141,-2.136,-2.625
-0.169,-0.990,-0.040,-6.226,-2.319,-2.869
-0.161,-0.975,-0.041,-4.333,-2.197,-2.747
-0.156,-0.968,-0.034,-3.357,-1.709,-2.441
-0.153,-0.961,-0.024,-2.380,-1.160,-2.075
-0.155,-0.956,-0.020,-1.465,-0.061,-1.587
-0.161,-0.958,-0.005,-1.282,0.366,-1.648
-0.165,-0.958,-0.004,-1.831,0.488,-2.014
-0.172,-0.961,-0.009,-2.625,0.488,-2.014
-0.172,-0.965,-0.017,-2.747,-0.244,-1.282
-0.172,-0.971,-0.021,-2.197,-1.038,-0.061
-0.172,-0.978,-0.030,-1.404,-1.221,1.221
-0.172,-0.986,-0.033,-1.587,-0.732,2.075
-0.167,-0.984,-0.031,-1.770,0.244,2.014
-0.171,-0.984,-0.029,-2.258,1.770,1.221
-0.173,-0.974,-0.016,-2.869,2.808,0.366
-0.178,-0.968,-0.014,-3.418,3.174,-0.061
-0.184,-0.966,-0.005,-3.357,3.174,-0.549
-0.187,-0.980,-0.006,-2.075,2.075,-0.366
-0.190,-0.984,-0.004,-0.183,0.061,0.366
-0.190,-0.993,-0.010,1.160,-1.404,1.160
-0.187,-1.002,-0.015,1.221,-2.014,1.770
-0.185,-1.012,-0.016,1.038,-1.831,1.953
-0.182,-1.008,-0.016,1.221,-0.977,1.648
-0.182,-1.003,-0.004,1.038,0.549,0.854
-0.179,-0.991,0.007,1.160,2.075,0.122
-0.183,-0.982,0.010,0.977,3.357,-0.183
-0.187,-0.980,0.010,1.099,3.601,-0.732
-0.191,-0.979,0.001,0.916,3.113,-0.793
-0.190,-0.980,-0.009,0.916,1.831,-0.549
-0.187,-0.992,-0.019,1.038,0.305,0.061
-0.184,-0.994,-0.028,0.854,-0.549,0.488
-0.180,-0.994,-0.028,1.038,-0.549,1.160
-0.181,-0.994,-0.023,0.916,-0.305,1.404
-0.176,-0.984,-0.002,1.099,-0.061,1.221
-0.178,-0.972,0.004,1.099,0.977,0.916
-0.183,-0.968,0.009,0.977,2.075,0.183
-0.191,-0.962,0.012,0.732,2.136,-0.366
-0.193,-0.966,0.004,0.366,1.831,-0.610
-0.188,-0.975,-0.009,0.183,0.854,-0.122
-0.179,-0.987,-0.023,0.305,0.000,0.610
-0.174,-1.001,-0.031,0.671,-0.427,1.404
-0.171,-1.005,-0.036,0.854,-0.183,2.319
-0.171,-0.998,-0.033,0.916,0.305,2.686
-0.172,-0.986,-0.020,0.427,0.671,2.197
-0.175,-0.975,-0.001,0.000,1.099,1.648
-0.178,-0.966,0.009,-0.427,1.709,0.977
-0.185,-0.964,0.017,-0.366,2.319,0.244
-0.191,-0.961,0.017,0.305,2.319,-0.061
-0.194,-0.970,0.009,0.793,1.770,0.000
-0.191,-0.976,-0.002,0.977,0.916,0.610
-0.187,-0.985,-0.017,0.793,-0.183,1.404
-0.180,-0.994,-0.029,0.366,-1.038,2.136
-0.175,-0.997,-0.040,0.244,-1.282,2.869
-0.172,-0.995,-0.036,0.305,-0.732,3.296
-0.171,-0.986,-0.028,0.183,0.122,3.296
-0.173,-0.979,-0.015,0.183,1.038,2.808
-0.177,-0.970,-0.003,0.610,1.709,2.502
-0.179,-0.969,0.002,1.099,2.197,2.380
-0.184,-0.978,0.001,1.465,2.441,2.380
-0.184,-0.991,-0.003,2.136,2.380,2.747
-0.181,-1.000,-0.008,2.319,2.197,2.625
-0.181,-1.004,-0.010,1.648,2.014,2.747
-0.180,-1.001,-0.008,0.366,1.526,2.441
-0.178,-1.000,-0.009,-0.916,0.977,1.892
-0.179,-0.990,-0.008,-1.404,0.793,1.770
-0.180,-0.980,-0.001,-0.977,1.282,1.526
-0.186,-0.976,0.004,-0.671,2.014,1.343
-0.186,-0.975,0.005,-0.122,2.258,1.038
-0.184,-0.976,0.003,0.610,2.258,1.099
-0.181,-0.980,-0.011,1.282,1.648,1.221
-0.172,-0.988,-0.019,1.160,0.732,1.465
-0.168,-0.995,-0.028,0.977,0.061,1.892
-0.168,-0.997,-0.025,1.038,0.000,2.197
-0.172,-0.990,-0.014,1.343,0.244,2.197
-0.176,-0.982,0.002,1.343,0.793,2.136
-0.180,-0.975,0.016,0.977,1.404,1.770
-0.188,-0.973,0.025,0.732,1.587,1.709
-0.191,-0.969,0.019,0.732,1.526,1.404
-0.188,-0.973,0.003,0.671,1.221,1.282
-0.182,-0.982,-0.015,0.732,0.854,1.221
-0.174,-0.990,-0.028,0.793,0.793,1.831
-0.166,-0.996,-0.033,1.099,0.549,2.625

0.535,-3.307,-1.093,-284.546,162.109,-115.173
-0.012,-0.862,2.396,-198.608,-102.905,-31.616
-1.741,-1.455,1.124,-37.231,-82.092,-52.307
-0.915,-0.532,0.486,35.950,-4.578,-30.090
-0.307,-0.321,0.166,21.973,2.747,-5.554
0.145,-0.806,0.281,39.368,5.249,-35.339
0.240,-0.526,0.350,41.870,10.986,-16.541
0.069,-0.605,-0.006,27.527,5.798,-0.366
0.032,-0.925,-0.145,9.583,-12.573,3.357
0.011,-1.055,-0.262,4.333,-18.372,0.183
-0.084,-1.060,-0.269,-4.211,-6.714,-9.583
-0.251,-0.940,0.026,-32.410,10.193,-26.733
-0.259,-0.890,0.585,-37.720,8.179,-32.166
-0.182,-0.905,0.313,-18.066,7.874,-29.236
-0.256,-0.859,0.188,-8.179,-1.892,-25.879
-0.283,-0.896,0.067,5.432,-12.390,-16.602
-0.254,-0.954,0.060,16.296,-15.991,-8.606
-0.241,-0.930,0.044,11.353,-11.230,-5.798
-0.186,-0.964,0.057,3.235,-10.376,-4.761
-0.199,-0.993,0.042,-3.601,-10.071,-5.127
-0.198,-0.970,0.096,-7.141,-10.986,-4.639
-0.211,-0.973,0.157,-8.545,-10.315,-6.104
-0.231,-0.953,0.231,-7.202,-6.348,-6.836
-0.226,-0.926,0.238,-5.249,-0.305,-6.958
-0.233,-0.922,0.223,-4.578,4.822,-6.958
-0.240,-0.920,0.175,-4.333,7.324,-5.554
-0.245,-0.911,0.132,-3.357,6.653,-2.441
-0.251,-0.926,0.115,-1.709,4.578,1.038
-0.245,-0.934,0.103,0.000,2.991,4.761
-0.242,-0.964,0.082,1.465,2.747,6.775
-0.237,-0.994,0.059,0.549,2.258,6.958
-0.242,-1.006,0.065,-2.808,1.770,5.493
-0.244,-1.011,0.075,-5.371,1.587,3.479
-0.250,-0.987,0.088,-5.737,1.770,2.258
-0.259,-0.974,0.097,-5.127,1.953,1.709
-0.260,-0.981,0.090,-4.883,1.038,1.099
-0.258,-0.996,0.070,-5.615,-1.160,1.099
-0.245,-0.979,0.085,-7.263,-5.127,2.014
-0.248,-0.993,0.121,-7.141,-8.057,2.380
-0.227,-1.002,0.053,-4.333,-5.676,1.709
-0.219,-0.998,0.033,-2.197,-4.150,1.404
-0.217,-0.980,0.055,-1.953,-2.930,0.671
-0.222,-0.969,0.062,-1.953,-0.793,0.000
-0.230,-0.956,0.092,-1.465,1.221,-0.244
-0.234,-0.946,0.110,-1.038,2.930,0.000
-0.246,-0.932,0.119,-0.488,3.906,0.793
-0.254,-0.931,0.118,0.183,3.723,1.404
-0.248,-0.947,0.093,1.160,2.075,1.648
-0.243,-0.968,0.071,3.174,-0.549,2.563
-0.231,-0.950,0.068,3.235,-3.723,4.700
-0.227,-0.961,0.098,0.916,-6.958,5.249
-0.219,-0.965,0.084,-0.122,-7.324,4.822
-0.218,-0.973,0.070,-0.244,-5.920,4.272
-0.223,-0.967,0.092,-0.610,-5.127,3.967
-0.229,-0.960,0.114,-0.488,-3.967,3.601
-0.237,-0.948,0.141,-0.183,-2.625,2.808
-0.241,-0.946,0.141,0.610,-1.038,2.014
-0.240,-0.952,0.130,1.160,0.488,1.343
-0.236,-0.962,0.111,1.160,1.282,1.404
-0.227,-0.969,0.096,0.061,1.709,2.014
-0.222,-0.973,0.081,-0.977,1.587,2.502
-0.217,-0.974,0.075,0.061,1.526,3.235
-0.210,-0.977,0.082,1.526,1.099,3.601
-0.211,-0.974,0.096,1.709,1.038,3.296
-0.219,-0.969,0.112,1.831,1.465,3.174
-0.225,-0.959,0.123,1.831,2.136,2.930
-0.234,-0.949,0.124,1.770,2.563,2.563
-0.238,-0.949,0.116,1.892,2.991,2.625
-0.239,-0.967,0.106,2.014,3.174,2.625
-0.238,-0.985,0.087,1.892,3.357,2.625
-0.234,-0.994,0.076,1.404,3.113,2.808
-0.232,-0.998,0.076,0.854,3.357,2.869
-0.228,-0.989,0.093,0.122,3.601,2.686
-0.229,-0.980,0.100,-0.610,3.967,2.136
-0.230,-0.966,0.120,-1.465,3.479,1.831
-0.230,-0.960,0.119,-1.953,3.235,1.282
-0.232,-0.953,0.126,-1.648,2.625,0.793
-0.234,-0.956,0.130,-0.854,1.831,0.610
-0.232,-0.967,0.120,0.061,1.160,0.732
-0.229,-0.979,0.106,1.099,0.488,0.732
-0.226,-0.982,0.104,1.648,-0.305,0.977
-0.223,-0.988,0.091,1.770,-0.427,1.099
-0.220,-0.985,0.094,1.526,-0.305,1.221
-0.225,-0.981,0.097,1.343,0.427,1.343
-0.228,-0.965,0.104,0.977,1.282,1.038
-0.232,-0.952,0.110,0.732,1.465,0.732
-0.232,-0.949,0.115,0.244,1.038,0.366
-0.233,-0.946,0.110,-0.488,0.916,0.183
-0.232,-0.954,0.101,-0.977,1.038,0.000
-0.229,-0.965,0.089,-0.854,1.465,0.549
-0.225,-0.978,0.085,-0.671,2.014,0.854
-0.220,-0.987,0.086,-0.366,2.319,1.343
-0.215,-0.983,0.083,-0.122,3.357,1.892
-0.215,-0.978,0.089,-0.488,3.906,1.892
-0.221,-0.964,0.097,-0.732,3.845,1.587
-0.224,-0.949,0.105,-0.732,3.784,1.587
-0.227,-0.943,0.106,-1.221,3.174,1.709
-0.231,-0.949,0.102,-1.648,2.136,2.014
-0.226,-0.954,0.090,-1.404,0.671,2.319
-0.221,-0.971,0.083,-0.488,-0.793,2.502
-0.218,-0.976,0.087,0.183,-1.465,2.502
-0.221,-0.990,0.093,0.488,-0.977,2.441
-0.220,-0.980,0.111,0.854,-0.244,2.319
-0.224,-0.973,0.123,0.977,0.488,2.197
-0.228,-0.963,0.133,0.854,0.793,1.648
-0.232,-0.957,0.138,0.671,0.671,1.038
-0.235,-0.952,0.135,0.610,0.916,0.488
-0.236,-0.954,0.131,0.793,1.099,0.427
-0.232,-0.961,0.113,1.038,0.916,0.854
-0.227,-0.972,0.094,0.610,0.671,1.404
-0.223,-0.982,0.084,0.427,0.122,1.892
-0.220,-0.986,0.087,0.488,-0.244,2.197
-0.219,-0.981,0.086,0.916,-0.122,2.136
-0.221,-0.971,0.106,0.793,0.305,1.953
-0.223,-0.959,0.125,0.549,0.610,1.892
-0.228,-0.950,0.132,0.549,0.916,1.770
-0.232,-0.945,0.128,0.427,0.916,1.404
-0.231,-0.959,0.118,0.427,0.488,1.160
-0.227,-0.971,0.107,0.427,-0.427,1.099

-1.146,-1.823,4.000,-260.681,164.124,-77.209
0.112,-1.107,-0.917,-414.001,263.184,-83.862
-1.073,-1.357,3.765,-229.309,-33.875,-39.612
-0.809,-0.852,0.299,44.495,-76.721,0.183
-0.658,-0.067,0.396,139.038,-62.317,35.339
-0.353,-0.904,0.129,126.831,-61.340,9.583
0.210,-0.658,0.029,75.623,-19.714,-7.324
0.068,-0.630,-0.026,44.739,-19.104,5.005
-0.058,-0.672,-0.152,14.832,-28.748,15.198
-0.044,-0.842,-0.179,-2.319,-28.381,16.968
-0.091,-0.938,-0.294,-5.615,-13.428,14.404
-0.134,-0.899,-0.118,-14.160,2.869,8.057
-0.211,-0.956,0.026,-38.330,24.170,-6.531
-0.326,-0.895,0.486,-54.199,33.264,-14.465
-0.280,-1.014,0.158,-24.475,21.301,-6.531
-0.293,-0.943,0.090,-5.371,1.953,3.174
-0.285,-0.982,-0.024,9.155,-12.085,11.169
-0.273,-0.990,0.033,15.625,-10.986,15.442
-0.244,-1.019,0.106,14.465,-11.658,17.212
-0.215,-1.037,0.130,9.644,-10.559,14.587
-0.229,-1.036,0.116,3.174,-8.972,11.230
-0.240,-0.995,0.107,-5.981,-4.639,5.066
-0.248,-1.005,0.163,-15.015,-1.709,-2.991
-0.255,-0.977,0.134,-19.592,2.625,-8.118
-0.289,-0.967,0.137,-17.456,4.822,-8.179
-0.319,-0.943,0.121,-11.108,3.174,-5.188
-0.333,-0.932,0.136,-1.770,-1.099,-1.282
-0.336,-0.943,0.120,7.874,-2.625,3.235
-0.333,-0.954,0.106,13.367,-2.747,6.531
-0.314,-0.972,0.079,16.113,-3.113,8.667
-0.296,-0.990,0.064,17.456,-4.517,9.583
-0.293,-1.049,0.031,16.357,-5.676,9.277
-0.267,-1.016,0.042,16.479,-6.348,8.057
-0.262,-1.029,0.010,16.357,-5.005,5.066
-0.254,-1.019,0.038,11.169,-3.479,1.770
-0.253,-1.004,0.047,6.775,-0.671,-1.587
-0.257,-0.982,0.059,4.089,1.160,-3.601
-0.255,-0.966,0.062,2.991,1.648,-4.272
-0.253,-0.949,0.055,2.686,1.160,-3.052
-0.257,-0.946,0.045,2.258,-0.244,-1.770
-0.256,-0.950,0.034,2.441,-1.709,-0.488
-0.251,-0.941,0.029,2.136,-2.258,0.549
-0.246,-0.941,0.035,1.160,-2.380,0.549
-0.241,-0.938,0.044,0.244,-1.770,-0.305
-0.239,-0.935,0.054,-0.305,-0.244,-0.671
-0.245,-0.930,0.062,-1.038,1.587,-1.160
-0.255,-0.926,0.068,-0.977,2.625,-1.526
-0.258,-0.927,0.073,0.061,2.625,-0.916
-0.261,-0.940,0.081,1.587,1.343,0.549
-0.257,-0.954,0.078,4.700,-1.038,2.625
-0.252,-0.958,0.065,8.667,-2.502,5.066
-0.243,-0.966,0.058,11.475,-3.906,6.409
-0.235,-0.969,0.053,12.512,-4.028,6.775
-0.235,-0.968,0.051,11.353,-2.930,5.737
-0.244,-0.960,0.052,7.324,-1.404,3.418
-0.254,-0.945,0.055,1.892,0.854,0.549
-0.260,-0.932,0.058,-2.380,3.052,-1.038
-0.264,-0.937,0.056,-3.906,4.517,-1.099
-0.266,-0.943,0.057,-3.784,5.127,0.366
-0.266,-0.964,0.067,-2.502,4.517,2.380
-0.264,-0.980,0.062,-0.488,3.052,3.967
-0.260,-0.990,0.072,0.916,0.793,4.456
-0.250,-1.000,0.070,1.465,-0.610,4.211
-0.248,-1.001,0.078,0.977,-0.732,2.869
-0.257,-0.993,0.078,0.183,-0.061,1.343
-0.263,-0.974,0.087,-0.793,0.671,-0.488
-0.268,-0.960,0.074,-0.916,0.854,-0.854
-0.270,-0.950,0.054,-0.061,0.610,-0.122
-0.267,-0.950,0.040,1.343,-0.366,1.709
-0.266,-0.965,0.030,2.808,-1.465,3.357
-0.262,-0.978,0.030,3.601,-2.014,4.639
-0.260,-0.986,0.031,3.784,-1.953,4.639
-0.254,-0.988,0.037,2.563,-0.793,3.235
-0.250,-0.984,0.057,0.183,0.916,1.221
-0.253,-0.979,0.081,-2.258,2.625,-0.793
-0.254,-0.971,0.094,-2.991,3.540,-1.831
-0.263,-0.957,0.077,-2.380,3.967,-2.136
-0.267,-0.945,0.069,-0.610,2.869,-1.709
-0.263,-0.948,0.063,1.709,0.854,-0.183
-0.258,-0.951,0.049,4.456,-1.038,1.587
-0.250,-0.957,0.033,6.348,-1.587,3.296
-0.242,-0.965,0.025,6.226,-1.282,3.906
-0.238,-0.969,0.035,4.089,-0.061,3.296
-0.238,-0.972,0.054,0.732,1.343,1.831
-0.240,-0.974,0.070,-1.770,2.319,0.305
-0.243,-0.972,0.074,-3.052,2.686,-0.732
-0.253,-0.970,0.086,-3.479,2.563,-1.038
-0.268,-0.961,0.085,-2.930,2.075,-0.916
-0.271,-0.953,0.075,-1.770,1.282,-0.061
-0.267,-0.958,0.051,0.427,0.183,1.221
-0.261,-0.958,0.043,2.747,-1.038,2.625
-0.254,-0.964,0.032,4.150,-1.404,3.723
-0.251,-0.967,0.038,4.150,-0.793,4.028
-0.245,-0.963,0.042,2.686,0.244,3.479
-0.243,-0.965,0.053,0.793,1.099,2.136
-0.246,-0.966,0.072,-0.732,1.953,1.099
-0.252,-0.967,0.078,-2.625,3.113,-0.122
-0.259,-0.960,0.088,-3.906,3.601,-1.160
-0.260,-0.953,0.079,-3.845,3.479,-1.282
-0.259,-0.961,0.071,-2.625,2.197,-0.305
-0.258,-0.972,0.058,-0.061,0.183,1.343
-0.256,-0.980,0.052,3.235,-1.160,2.991
-0.254,-0.981,0.049,5.066,-1.526,3.418
-0.249,-0.975,0.053,4.272,-0.916,2.869
-0.254,-0.967,0.066,2.075,0.610,1.526
-0.264,-0.957,0.074,-0.061,2.075,0.122
-0.268,-0.947,0.071,-1.709,2.563,-0.854
-0.269,-0.946,0.063,-2.014,1.953,-0.854
-0.269,-0.954,0.045,-1.160,0.793,0.183
-0.262,-0.962,0.043,0.671,-0.366,1.770
-0.257,-0.978,0.025,2.075,-0.122,3.296
-0.258,-0.990,0.048,1.465,0.366,3.540
-0.251,-0.992,0.064,-0.122,1.404,2.563
-0.250,-0.984,0.071,-2.319,2.869,0.610
-0.252,-0.978,0.091,-3.540,3.052,-1.343
-0.252,-0.967,0.098,-3.662,2.686,-2.319
-0.260,-0.954,0.097,-3.174,2.686,-2.380
-0.267,-0.949,0.089,-1.648,2.014,-1.770
-0.264,-0.952,0.075,0.916,0.671,-0.366

-1.013,1.105,2.509,-273.193,177.429,-75.134
-0.109,-1.927,3.143,-273.682,64.697,-91.309
-0.668,-1.878,1.068,-62.683,-74.097,-82.153
-0.864,-0.125,0.385,6.836,-54.565,-36.682
-0.521,-0.474,0.396,45.532,-26.794,-12.939
-0.275,-0.600,0.167,43.701,15.991,-11.353
0.043,-0.580,0.252,27.466,41.138,-5.615
0.048,-0.532,0.202,16.846,37.292,7.996
-0.086,-0.736,-0.121,9.705,20.813,22.095
-0.123,-0.782,-0.219,18.127,4.456,25.635
-0.174,-0.790,-0.155,29.602,0.061,25.391
-0.231,-0.904,0.039,21.484,2.380,19.653
-0.254,-1.034,0.094,10.193,3.540,14.099
-0.273,-1.019,0.120,8.057,-2.808,16.296
-0.294,-1.014,0.145,11.963,-11.230,19.226
-0.289,-1.021,0.141,15.625,-12.268,21.240
-0.310,-1.040,0.119,14.282,-8.484,22.034
-0.296,-1.046,0.100,6.897,-4.761,20.020
-0.286,-1.078,0.126,2.502,-3.906,15.076
-0.286,-1.051,0.099,-3.540,-1.343,9.644
-0.287,-1.051,0.110,-9.705,1.160,3.845
-0.286,-1.038,0.100,-11.353,2.441,-0.732
-0.287,-1.020,0.082,-8.240,0.549,-2.563
-0.300,-1.022,0.076,-5.127,-1.831,-2.441
-0.318,-1.008,0.072,-3.113,-2.563,-1.526
-0.334,-1.015,0.070,-0.610,-3.052,-0.793
-0.336,-0.996,0.084,2.808,-3.296,0.793
-0.331,-0.993,0.037,5.981,-2.380,2.075
-0.325,-0.997,0.032,4.517,-2.441,1.648
-0.319,-1.009,-0.000,0.916,-1.587,0.427
-0.301,-1.019,-0.002,-2.319,-0.671,-0.671
-0.279,-1.016,-0.000,-3.967,-0.549,-1.648
-0.263,-1.010,0.024,-4.578,-0.366,-2.502
-0.253,-1.000,0.050,-4.639,0.183,-4.089
-0.246,-0.979,0.059,-4.700,0.977,-6.287
-0.250,-0.960,0.068,-4.822,1.343,-7.751
-0.263,-0.932,0.065,-3.967,1.526,-8.301
-0.260,-0.913,0.052,-3.357,1.282,-8.301
-0.263,-0.903,0.047,-2.380,0.305,-7.324
-0.264,-0.902,0.038,-0.671,-0.610,-5.249
-0.263,-0.903,0.031,0.610,-1.160,-3.296
-0.259,-0.915,0.027,0.916,-0.793,-1.709
-0.258,-0.927,0.042,0.610,-0.244,0.427
-0.256,-0.936,0.050,0.610,0.793,1.648
-0.259,-0.948,0.059,0.122,2.075,2.441
-0.267,-0.936,0.072,-1.038,3.296,2.869
-0.271,-0.935,0.077,-1.709,4.211,2.625
-0.271,-0.937,0.079,-2.014,3.723,2.014
-0.272,-0.945,0.070,-2.014,2.686,1.831
-0.266,-0.949,0.044,-1.587,1.160,1.892
-0.263,-0.958,0.030,-0.366,-0.488,2.197
-0.262,-0.965,0.023,1.526,-1.709,2.380
-0.259,-0.963,0.036,2.319,-2.136,2.197
-0.259,-0.959,0.056,1.953,-1.953,2.075
-0.269,-0.960,0.067,1.465,-1.099,1.770
-0.276,-0.952,0.085,0.854,-0.671,1.343
-0.284,-0.949,0.100,0.732,-0.122,0.916
-0.286,-0.950,0.092,0.793,0.000,0.732
-0.285,-0.960,0.083,0.366,-0.305,0.854
-0.285,-0.974,0.059,-0.183,-0.244,1.221
-0.284,-0.974,0.038,-0.732,0.061,2.014
-0.278,-0.970,0.026,-1.831,0.610,2.686
-0.275,-0.971,0.018,-1.099,1.099,2.686
-0.275,-0.974,0.028,0.122,1.160,2.563
-0.275,-0.972,0.043,1.282,0.854,1.831
-0.264,-0.957,0.079,1.343,0.488,0.549
-0.282,-0.965,0.080,1.099,1.099,-0.427
-0.290,-0.957,0.086,0.183,1.038,-0.671
-0.290,-0.957,0.080,0.183,0.122,-0.793
-0.287,-0.953,0.072,0.732,-0.732,-0.793
-0.281,-0.956,0.056,0.488,-0.610,-0.916
-0.273,-0.957,0.047,-0.061,-0.122,-0.977
-0.265,-0.952,0.038,0.061,0.427,-0.427
-0.262,-0.950,0.041,0.366,1.221,0.244
-0.259,-0.947,0.045,0.488,1.892,0.854
-0.267,-0.950,0.057,1.160,2.563,1.282
-0.273,-0.948,0.063,1.465,2.808,1.526
-0.282,-0.957,0.071,0.793,2.380,1.343
-0.284,-0.961,0.065,0.183,2.014,1.526
-0.283,-0.966,0.058,-0.366,1.404,1.526
-0.281,-0.974,0.054,-0.854,0.671,1.587
-0.280,-0.975,0.047,-1.282,0.488,1.648
-0.278,-0.977,0.051,-1.526,0.488,1.343
-0.275,-0.969,0.063,-1.343,0.732,0.793
-0.277,-0.965,0.064,-0.183,1.465,0.671
-0.276,-0.956,0.070,0.305,1.953,0.244
-0.278,-0.952,0.075,0.244,1.953,-0.122
-0.281,-0.945,0.072,0.427,1.892,-0.122
-0.277,-0.953,0.066,0.549,1.465,0.122
-0.275,-0.960,0.056,0.854,0.916,0.549
-0.270,-0.966,0.043,1.221,0.977,1.404
-0.267,-0.967,0.041,1.099,0.916,1.953
-0.262,-0.974,0.045,0.061,0.671,1.770
-0.263,-0.971,0.054,-0.488,0.427,1.770
-0.266,-0.969,0.059,-0.488,0.305,1.831
-0.270,-0.957,0.075,-0.732,0.549,1.526
-0.277,-0.952,0.081,-0.305,1.465,1.404
-0.287,-0.949,0.086,0.549,1.465,0.916
-0.287,-0.950,0.073,1.526,0.977,0.488
-0.282,-0.958,0.063,1.831,0.122,0.366
-0.276,-0.965,0.047,0.916,-0.244,0.427
-0.272,-0.969,0.038,0.000,-0.427,0.732
-0.269,-0.970,0.039,-0.610,0.000,1.221
-0.271,-0.963,0.043,-1.282,0.916,1.465
-0.268,-0.953,0.070,-1.160,1.099,1.282
-0.270,-0.950,0.068,-0.549,1.221,0.977
-0.273,-0.951,0.090,-0.122,0.549,0.671
-0.277,-0.948,0.087,0.122,-0.305,0.549
-0.280,-0.953,0.072,0.427,-0.183,0.427
-0.279,-0.957,0.062,0.366,-0.122,0.305
-0.277,-0.960,0.046,0.610,0.061,0.610
-0.275,-0.961,0.036,0.916,-0.305,1.038
-0.270,-0.961,0.030,0.854,-0.366,1.465
-0.267,-0.959,0.040,0.305,0.244,1.465
-0.270,-0.958,0.057,0.244,1.160,1.831
-0.275,-0.948,0.074,0.244,1.770,1.831
-0.279,-0.948,0.086,0.793,2.014,1.404
-0.284,-0.947,0.089,1.648,1.953,1.160
-0.286,-0.951,0.076,1.587,1.709,0.977

-1.219,-1.944,3.605,-317.444,96.741,-133.545
-0.631,-3.197,0.446,-44.189,49.194,-106.567
-0.595,0.411,1.184,-16.541,-25.574,-1.221
-0.302,-0.679,-0.428,90.881,-71.411,21.179
0.280,-0.956,-0.209,165.894,-89.539,5.432
0.163,-0.360,-0.197,113.403,-81.421,32.410
-0.080,-0.557,-0.303,52.063,-34.912,45.105
-0.022,-0.835,-0.415,21.301,-15.686,31.433
-0.048,-0.926,-0.394,15.930,-4.395,22.217
-0.063,-0.856,-0.245,14.709,6.653,14.099
-0.096,-0.833,-0.136,-6.897,22.095,3.296
-0.137,-0.888,-0.069,-34.363,33.630,-6.531
-0.191,-0.916,-0.061,-46.326,35.828,-11.658
-0.232,-0.957,-0.038,-43.274,29.785,-14.160
-0.263,-0.958,0.041,-32.837,20.996,-13.977
-0.314,-0.999,0.139,-19.531,15.442,-11.780
-0.350,-1.036,0.133,-7.385,15.564,-8.789
-0.352,-1.006,0.107,6.042,8.667,-5.737
-0.339,-1.009,0.078,15.503,-0.488,-3.479
-0.322,-0.982,0.081,17.029,-5.737,-1.709
-0.285,-0.972,0.057,12.939,-7.141,-2.563
-0.240,-0.957,0.059,8.179,-6.104,-4.883
-0.219,-0.933,0.004,6.104,-1.282,-5.432
-0.232,-0.911,-0.026,5.493,3.906,-3.723
-0.239,-0.903,-0.047,4.639,4.700,-1.343
-0.247,-0.913,-0.070,4.395,5.005,1.587
-0.260,-0.950,-0.075,3.296,3.967,3.906
-0.267,-1.000,-0.078,0.916,3.113,4.456
-0.266,-1.028,-0.070,-0.549,2.014,3.601
-0.262,-1.032,-0.062,-1.587,2.136,2.319
-0.261,-1.051,-0.040,-3.235,3.235,-0.122
-0.260,-1.036,-0.013,-4.150,4.883,-2.136
-0.263,-1.022,0.013,-4.517,6.897,-3.601
-0.270,-1.014,0.026,-4.700,8.789,-5.432
-0.277,-0.986,0.043,-4.395,9.155,-5.737
-0.288,-0.970,0.048,-3.845,8.728,-5.310
-0.285,-0.952,0.047,-2.869,6.958,-4.333
-0.280,-0.939,0.038,-1.648,4.395,-2.991
-0.279,-0.939,0.007,-0.488,2.197,-1.770
-0.272,-0.936,0.002,0.854,-0.244,0.000
-0.264,-0.951,-0.024,1.953,-1.404,1.404
-0.254,-0.953,-0.025,1.831,-1.831,1.892
-0.249,-0.959,-0.034,2.258,-1.892,1.770
-0.246,-0.959,-0.031,2.625,-1.709,1.526
-0.247,-0.959,-0.035,1.099,-0.793,0.671
-0.249,-0.956,-0.028,-1.648,0.427,-0.427
-0.247,-0.957,-0.024,-3.784,2.075,-1.282
-0.248,-0.962,-0.013,-4.822,2.991,-1.648
-0.251,-0.966,-0.002,-5.005,3.052,-1.770
-0.257,-0.963,-0.001,-4.517,3.235,-1.343
-0.258,-0.961,-0.002,-3.845,3.052,-0.977
-0.261,-0.961,-0.006,-3.418,2.686,-0.793
-0.260,-0.964,-0.006,-2.563,1.770,-0.488
-0.264,-0.959,-0.009,-0.916,0.610,0.183
-0.264,-0.957,-0.014,1.038,-0.061,0.977
-0.267,-0.960,-0.008,2.197,-0.244,1.770
-0.269,-0.965,-0.013,3.418,0.305,2.686
-0.267,-0.970,-0.022,4.822,0.183,3.235
-0.268,-0.975,-0.026,5.676,-0.610,3.601
-0.267,-0.980,-0.027,5.554,-0.977,3.418
-0.264,-0.983,-0.017,4.089,-0.610,2.502
-0.260,-0.979,-0.017,2.014,0.244,1.282
-0.261,-0.976,-0.014,0.366,0.977,-0.122
-0.262,-0.971,-0.003,-0.671,1.953,-1.160
-0.263,-0.957,-0.003,-0.427,3.052,-1.404
-0.266,-0.951,-0.004,0.183,3.357,-1.343
-0.261,-0.950,-0.007,1.465,2.258,-0.610
-0.259,-0.952,-0.017,3.723,0.977,0.732
-0.255,-0.953,-0.024,6.042,0.000,2.136
-0.255,-0.956,-0.033,7.019,-0.427,3.174
-0.251,-0.958,-0.036,6.836,-0.549,3.357
-0.251,-0.963,-0.027,5.615,-0.427,2.991
-0.253,-0.967,-0.021,3.845,-0.183,2.258
-0.260,-0.969,-0.009,2.136,0.488,1.282
-0.265,-0.967,-0.008,1.160,1.282,0.488
-0.272,-0.968,0.001,1.038,1.587,-0.183
-0.276,-0.964,-0.010,1.465,1.770,0.122
-0.278,-0.965,-0.011,2.747,1.160,0.854
-0.272,-0.967,-0.021,4.639,0.305,1.831
-0.267,-0.974,-0.029,6.042,-0.549,2.686
-0.259,-0.983,-0.031,6.470,-1.221,3.235
-0.255,-0.986,-0.030,5.676,-1.160,2.991
-0.247,-0.979,-0.027,3.845,-0.549,1.770
-0.243,-0.975,-0.014,1.282,0.610,0.305
-0.246,-0.973,-0.003,-0.977,2.075,-0.854
-0.252,-0.961,0.004,-1.892,2.930,-1.343
-0.258,-0.952,0.006,-1.343,3.052,-0.977
-0.261,-0.953,0.009,-0.061,2.136,-0.122
-0.263,-0.959,-0.005,1.404,1.038,1.465
-0.264,-0.964,-0.016,2.991,-0.183,2.747
-0.259,-0.965,-0.023,4.028,-1.099,3.235
-0.255,-0.964,-0.023,4.089,-1.465,2.991
-0.253,-0.960,-0.022,2.991,-0.916,2.441
-0.258,-0.956,-0.024,1.465,-0.244,1.892
-0.265,-0.951,-0.027,0.000,0.427,1.282
-0.271,-0.951,-0.025,-0.977,0.610,1.099
-0.273,-0.954,-0.031,-1.221,0.488,1.526
-0.271,-0.965,-0.037,-0.916,0.061,2.380
-0.266,-0.979,-0.045,-0.061,-0.244,3.479
-0.255,-0.990,-0.044,0.977,-0.366,4.150
-0.247,-1.000,-0.052,0.977,0.305,3.845
-0.243,-0.994,-0.036,0.000,0.854,2.686
-0.239,-0.992,-0.017,-1.099,2.136,1.343
-0.241,-0.976,-0.004,-2.625,3.784,-0.183
-0.251,-0.961,0.009,-3.540,4.272,-1.343
-0.261,-0.952,0.017,-3.418,3.479,-1.953
-0.273,-0.934,0.004,-1.892,2.380,-1.282
-0.277,-0.937,-0.001,0.549,0.610,0.061
-0.273,-0.947,-0.014,3.845,-1.282,2.136
-0.269,-0.960,-0.034,6.897,-2.380,4.028
-0.264,-0.975,-0.047,8.179,-2.808,5.188
-0.255,-0.987,-0.046,7.324,-2.502,4.822
-0.249,-0.987,-0.043,4.944,-1.099,3.357
-0.246,-0.983,-0.027,1.343,1.221,1.465
-0.254,-0.979,-0.016,-2.075,3.784,-0.244
-0.263,-0.964,0.001,-3.784,4.883,-1.526
-0.266,-0.956,-0.005,-3.967,4.822,-1.587
-0.266,-0.955,-0.011,-3.052,3.723,-1.282
-0.260,-0.956,-0.017,-1.221,2.197,0.122

-0.616,-1.971,4.000,-236.389,215.210,-110.291
-1.902,-1.354,0.955,-60.913,130.859,-61.279
-1.105,-0.616,0.935,51.819,-93.506,23.437
0.039,-0.575,0.458,216.675,-236.267,28.931
0.295,-0.773,-1.005,247.803,-154.297,3.174
0.028,-0.609,0.066,115.540,-140.442,-14.709
0.010,-0.884,-0.569,8.789,-52.185,-18.738
-0.008,-0.931,-0.490,-20.203,-15.930,-22.278
-0.003,-0.890,-0.434,2.747,-14.526,-14.587
0.033,-0.867,-0.464,29.175,-8.423,-12.695
0.005,-0.831,-0.467,23.132,2.930,-13.062
-0.016,-0.832,-0.445,9.705,12.512,-9.949
-0.031,-0.821,-0.425,2.014,15.747,-7.263
-0.075,-0.682,-0.316,1.465,16.968,-5.188
-0.158,-0.603,-0.146,-19.714,25.391,-6.226
-0.161,-0.730,-0.127,-76.294,43.884,-13.855
-0.257,-0.793,-0.053,-114.258,49.805,-17.517
-0.331,-0.877,0.019,-116.638,49.805,-19.775
-0.363,-0.882,0.321,-105.591,49.561,-22.400
-0.373,-0.875,0.273,-86.121,59.875,-18.860
-0.402,-0.920,0.104,-61.707,65.552,-11.597
-0.395,-0.895,0.065,-32.593,37.048,-6.592
-0.368,-0.865,0.040,-4.211,3.906,-1.892
-0.353,-0.871,-0.014,18.494,-19.348,2.869
-0.343,-0.915,-0.012,29.602,-28.931,10.437
-0.312,-0.868,-0.028,35.034,-28.625,19.409
-0.291,-0.894,-0.123,36.316,-19.897,23.010
-0.273,-0.947,-0.149,31.433,-13.184,23.315
-0.264,-0.981,-0.158,24.231,-7.019,23.193
-0.263,-1.018,-0.145,18.616,-1.404,21.240
-0.261,-1.041,-0.110,13.855,2.563,17.761
-0.274,-1.054,-0.083,9.583,5.554,13.550
-0.289,-1.045,-0.078,5.737,6.897,9.949
-0.303,-1.045,-0.081,2.563,5.981,6.775
-0.312,-1.036,-0.096,1.282,3.967,4.700
-0.316,-1.018,-0.116,0.549,2.258,3.357
-0.311,-1.007,-0.131,-0.244,1.648,1.953
-0.307,-0.998,-0.135,-1.892,2.869,0.732
-0.305,-0.992,-0.112,-5.127,5.615,-0.671
-0.305,-0.988,-0.078,-7.935,8.118,-2.075
-0.311,-0.974,-0.040,-7.751,8.911,-2.869
-0.311,-0.973,-0.016,-5.676,7.996,-4.089
-0.314,-0.958,-0.004,-3.235,6.409,-4.395
-0.318,-0.947,0.000,-1.465,4.395,-3.906
-0.310,-0.949,-0.019,0.793,2.136,-2.808
-0.300,-0.942,-0.050,5.310,-0.732,-1.221
-0.284,-0.930,-0.073,9.949,-2.930,0.732
-0.266,-0.937,-0.094,12.085,-4.333,2.441
-0.255,-0.945,-0.100,11.353,-3.784,3.113
-0.248,-0.944,-0.102,7.874,-1.770,2.136
-0.248,-0.948,-0.084,2.991,0.854,0.427
-0.257,-0.950,-0.068,-1.892,3.052,-1.709
-0.272,-0.944,-0.055,-4.211,4.272,-2.808
-0.285,-0.939,-0.048,-4.639,3.601,-3.113
-0.297,-0.940,-0.049,-4.517,2.686,-2.930
-0.300,-0.940,-0.048,-4.150,1.953,-2.258
-0.294,-0.947,-0.048,-1.770,0.732,-0.671
-0.289,-0.944,-0.052,2.319,-0.854,2.014
-0.281,-0.947,-0.059,5.798,-1.709,4.089
-0.272,-0.947,-0.058,7.568,-1.465,5.127
-0.272,-0.945,-0.060,7.812,-0.305,5.066
-0.273,-0.943,-0.051,6.775,0.854,4.333
-0.281,-0.933,-0.057,5.371,2.136,4.150
-0.285,-0.940,-0.061,4.272,2.441,4.028
-0.288,-0.946,-0.078,3.967,1.770,4.822
-0.286,-0.961,-0.083,5.371,0.183,5.493
-0.281,-0.966,-0.090,8.240,-1.221,6.409
-0.271,-0.969,-0.094,10.803,-2.258,6.958
-0.265,-0.971,-0.094,11.475,-2.441,6.897
-0.263,-0.963,-0.094,10.254,-1.831,6.104
-0.268,-0.959,-0.095,7.263,-0.183,4.639
-0.273,-0.956,-0.091,3.113,1.526,2.991
-0.282,-0.954,-0.085,-0.610,2.258,1.892
-0.286,-0.955,-0.083,-2.869,2.197,1.343
-0.286,-0.965,-0.090,-3.662,1.953,1.465
-0.283,-0.970,-0.095,-3.540,1.465,2.075
-0.280,-0.983,-0.097,-2.808,1.221,2.502
-0.277,-0.986,-0.085,-1.526,0.793,2.625
-0.277,-0.985,-0.087,0.183,1.038,2.136
-0.278,-0.971,-0.072,1.892,0.854,1.038
-0.279,-0.957,-0.069,2.869,1.282,0.305
-0.281,-0.950,-0.064,3.052,1.404,0.061
-0.279,-0.947,-0.073,3.906,1.160,0.977
-0.274,-0.946,-0.080,4.761,0.549,2.319
-0.265,-0.957,-0.091,4.700,-0.305,3.723
-0.257,-0.967,-0.103,4.395,-0.916,4.517
-0.247,-0.972,-0.106,4.272,-0.854,4.578
-0.233,-0.965,-0.100,4.089,-0.183,4.333
-0.236,-0.962,-0.081,3.723,0.977,3.845
-0.247,-0.961,-0.061,1.099,2.502,2.686
-0.258,-0.958,-0.049,-1.648,3.479,1.099
-0.266,-0.951,-0.045,-3.235,3.662,-0.183
-0.276,-0.950,-0.050,-2.930,2.808,0.244
-0.280,-0.951,-0.055,-1.099,1.221,2.014
-0.280,-0.956,-0.075,2.014,-0.793,4.333
-0.282,-0.970,-0.090,4.944,-2.258,6.165
-0.282,-0.974,-0.104,6.042,-2.747,6.836
-0.282,-0.982,-0.100,5.066,-2.563,6.042
-0.278,-0.984,-0.093,3.296,-1.770,4.700
-0.284,-0.990,-0.079,2.686,-0.610,3.845
-0.288,-0.985,-0.077,2.075,0.427,2.747
-0.292,-0.986,-0.085,1.160,0.854,1.282
-0.294,-0.989,-0.083,1.282,0.183,0.488
-0.290,-0.982,-0.087,2.869,-0.977,0.427
-0.283,-0.977,-0.100,4.944,-1.831,0.977
-0.275,-0.971,-0.117,6.348,-2.380,1.709
-0.270,-0.981,-0.125,6.897,-2.625,2.075
-0.262,-0.977,-0.128,6.470,-2.441,2.014
-0.264,-0.977,-0.126,5.615,-1.709,1.526
-0.266,-0.974,-0.113,4.944,-0.488,0.488
-0.282,-0.958,-0.102,4.395,0.916,-0.183
-0.294,-0.937,-0.101,3.906,2.441,-0.610
-0.298,-0.931,-0.094,3.052,2.686,-0.916
-0.301,-0.922,-0.098,2.625,2.136,-0.427
-0.295,-0.931,-0.109,2.869,0.793,0.793
-0.288,-0.951,-0.119,3.296,-0.122,2.380
-0.283,-0.962,-0.127,3.967,-0.671,3.845
-0.277,-0.967,-0.119,5.737,-0.366,4.761
-0.271,-0.966,-0.109,6.653,0.183,4.944

-2.336,0.429,0.755,-388.245,225.159,-81.909
0.310,-4.000,2.942,-83.496,-1.160,-108.276
-1.206,0.284,1.516,147.278,-10.864,32.837
-0.754,-0.362,1.068,154.480,-204.224,35.156
0.408,-1.103,-1.156,118.347,-148.987,-22.217
0.191,-0.782,-0.478,67.200,-160.278,-17.761
-0.071,-0.735,-0.809,39.124,-78.796,-11.536
0.130,-0.783,-0.493,2.014,-30.090,-24.780
0.091,-0.859,-0.382,-11.230,-0.122,-25.757
0.016,-0.799,-0.360,-6.470,12.390,-17.273
-0.020,-0.829,-0.393,-4.883,18.860,-15.320
-0.035,-0.854,-0.364,-1.892,19.958,-15.015
-0.036,-0.825,-0.370,-2.319,20.386,-13.550
-0.039,-0.802,-0.353,-2.930,17.822,-9.583
-0.033,-0.812,-0.389,-1.587,15.625,-5.188
-0.057,-0.803,-0.407,2.563,15.259,-0.977
-0.072,-0.802,-0.350,5.127,16.785,2.075
-0.084,-0.829,-0.293,3.540,21.423,3.174
-0.114,-0.858,-0.252,1.343,28.564,3.906
-0.280,-0.692,0.205,-7.080,36.499,3.723
-0.366,-0.770,0.069,-58.472,58.533,-8.850
-0.623,-1.135,1.098,-102.173,66.956,-22.461
-0.652,-1.310,0.728,-72.571,69.885,-18.372
-0.510,-1.058,0.620,4.700,23.560,-1.038
-0.317,-0.892,0.062,80.444,-35.767,16.235
-0.291,-0.899,-0.139,83.435,-47.852,24.536
-0.230,-0.859,-0.359,39.124,-32.776,21.362
-0.197,-0.955,-0.332,15.747,-14.282,16.785
-0.190,-0.975,-0.260,8.423,-2.686,14.099
-0.195,-0.990,-0.210,-2.991,8.118,10.864
-0.222,-1.013,-0.169,-15.198,15.503,6.042
-0.267,-1.041,-0.107,-26.855,19.226,0.732
-0.308,-1.055,-0.004,-34.546,21.301,-4.089
-0.331,-1.062,0.075,-33.752,21.179,-7.019
-0.339,-1.068,0.111,-23.682,16.541,-6.409
-0.328,-1.064,0.088,-7.996,7.935,-3.296
-0.306,-1.022,0.005,8.484,-0.549,-0.854
-0.273,-0.980,-0.076,19.104,-5.310,0.671
-0.257,-0.948,-0.122,18.738,-5.188,0.610
-0.260,-0.934,-0.126,11.292,-1.648,0.061
-0.265,-0.941,-0.117,3.052,2.563,-0.549
-0.275,-0.942,-0.087,-2.197,5.188,-0.977
-0.285,-0.956,-0.066,-5.310,5.676,-1.526
-0.275,-0.974,-0.045,-6.470,4.639,-2.136
-0.268,-0.984,-0.035,-5.920,3.418,-2.319
-0.261,-0.981,-0.034,-4.211,1.709,-2.319
-0.250,-0.977,-0.046,-1.770,-0.061,-2.441
-0.243,-0.964,-0.060,2.258,-1.831,-2.380
-0.233,-0.952,-0.065,6.592,-3.052,-2.319
-0.237,-0.941,-0.069,8.606,-2.747,-2.258
-0.238,-0.927,-0.059,7.507,-1.831,-2.197
-0.245,-0.922,-0.055,4.272,0.183,-1.770
-0.259,-0.928,-0.061,1.099,1.709,-0.854
-0.267,-0.922,-0.062,0.183,1.587,0.122
-0.264,-0.929,-0.062,0.000,0.977,0.793
-0.265,-0.934,-0.062,-0.671,0.610,1.648
-0.261,-0.948,-0.058,-0.977,0.427,1.953
-0.261,-0.956,-0.045,-0.366,0.183,2.075
-0.263,-0.951,-0.043,0.061,0.305,2.258
-0.260,-0.958,-0.038,0.061,0.305,2.197
-0.262,-0.960,-0.039,0.305,0.305,2.258
-0.268,-0.960,-0.046,0.916,0.244,2.686
-0.266,-0.964,-0.058,1.587,-0.366,2.869
-0.266,-0.962,-0.073,2.441,-1.343,3.174
-0.264,-0.969,-0.082,3.296,-2.136,3.418
-0.266,-0.968,-0.080,2.747,-2.136,3.235
-0.265,-0.971,-0.078,2.258,-1.770,2.808
-0.268,-0.976,-0.056,1.709,-0.854,2.258
-0.267,-0.979,-0.040,1.892,-0.122,1.892
-0.271,-0.983,-0.045,2.014,0.732,1.404
-0.270,-0.978,-0.041,2.625,0.610,1.404
-0.271,-0.974,-0.046,3.113,0.366,1.465
-0.271,-0.973,-0.055,3.052,-0.305,1.404
-0.268,-0.971,-0.074,2.869,-0.610,1.770
-0.267,-0.971,-0.081,2.625,-0.854,2.075
-0.261,-0.971,-0.087,2.136,-0.977,1.953
-0.261,-0.973,-0.083,1.343,-0.488,1.831
-0.264,-0.971,-0.075,0.061,0.488,1.404
-0.263,-0.967,-0.056,-1.221,1.465,0.610
-0.264,-0.965,-0.040,-2.136,2.686,0.061
-0.264,-0.963,-0.026,-2.258,3.784,-0.122
-0.267,-0.962,-0.031,-2.014,3.967,0.061
-0.270,-0.963,-0.033,-1.038,3.052,0.366
-0.266,-0.958,-0.053,0.549,1.587,0.916
-0.261,-0.954,-0.075,2.014,0.183,1.404
-0.256,-0.953,-0.093,2.197,-0.732,2.014
-0.253,-0.949,-0.095,1.160,-0.671,2.502
-0.252,-0.955,-0.082,-0.854,0.549,2.258
-0.253,-0.961,-0.067,-3.052,1.892,1.892
-0.256,-0.966,-0.045,-4.089,3.052,1.221
-0.256,-0.961,-0.039,-4.028,3.479,0.732
-0.259,-0.959,-0.031,-3.723,3.418,0.671
-0.262,-0.952,-0.044,-3.174,4.028,1.404
-0.267,-0.955,-0.058,-2.075,3.540,2.197
-0.261,-0.957,-0.075,-0.488,2.441,2.991
-0.260,-0.962,-0.086,1.038,1.221,3.540
-0.259,-0.963,-0.090,1.282,0.305,3.784
-0.262,-0.962,-0.077,0.916,0.549,3.418
-0.264,-0.969,-0.056,-0.305,1.648,2.930
-0.265,-0.964,-0.032,-1.526,2.747,2.075
-0.267,-0.967,-0.019,-1.648,3.479,1.648
-0.263,-0.965,-0.015,-0.549,3.052,1.892
-0.257,-0.960,-0.036,0.793,1.953,2.502
-0.254,-0.971,-0.050,1.587,0.427,2.808
-0.252,-0.979,-0.066,1.892,-0.549,3.235
-0.255,-0.975,-0.079,2.075,-0.916,3.235
-0.257,-0.974,-0.081,1.404,-1.038,2.625
-0.262,-0.973,-0.073,0.000,-0.549,1.953
-0.269,-0.966,-0.047,-0.732,0.427,1.221
-0.279,-0.966,-0.030,-1.221,0.793,0.793
-0.280,-0.965,-0.010,-0.854,0.854,1.099
-0.277,-0.969,-0.036,0.122,0.854,1.587
-0.271,-0.972,-0.029,1.526,-0.366,1.648
-0.260,-0.975,-0.050,2.869,-1.343,2.197
-0.252,-0.973,-0.078,3.174,-1.343,2.563
-0.245,-0.978,-0.093,2.258,-1.160,2.258
-0.243,-0.981,-0.091,1.587,-0.732,2.136
-0.245,-0.977,-0.080,0.977,-0.122,1.404
-0.247,-0.969,-0.057,0.488,0.854,0.610

-0.061,-0.562,-2.073,23.315,-74.280,-15.015
0.027,-0.544,-2.214,35.095,-54.138,-9.216
0.072,-0.503,-2.222,52.063,-23.254,0.793
0.090,-0.465,-2.140,72.144,13.855,14.832
0.094,-0.474,-1.945,89.172,50.232,29.724
0.112,-0.460,-1.674,97.168,83.130,41.992
0.152,-0.441,-1.414,94.177,112.671,49.744
0.206,-0.472,-1.131,82.458,136.047,52.368
0.223,-0.508,-0.793,61.096,157.471,51.208
0.185,-0.597,-0.467,31.250,181.580,49.438
0.185,-0.829,-0.095,-3.113,202.698,48.950
0.198,-1.171,0.272,-33.203,213.806,48.462
0.143,-1.487,0.514,-48.401,216.736,47.852
0.084,-1.757,0.764,-42.786,213.806,43.213
0.028,-1.896,1.056,-23.254,209.961,35.400
-0.076,-1.912,1.277,-0.854,205.933,27.527
-0.151,-1.901,1.432,17.151,195.679,18.860
-0.162,-1.824,1.534,28.320,177.185,8.972
-0.208,-1.676,1.554,38.025,156.250,0.488
-0.240,-1.496,1.482,49.316,134.644,-4.456
-1.322,-1.155,3.951,-3.174,99.304,-6.226
-0.817,0.747,3.705,-303.040,23.865,-18.372
-0.841,-1.317,1.619,-190.369,-96.191,-83.557
-0.350,-1.256,0.008,-46.326,-84.290,-109.558
-0.379,-0.343,0.617,-48.035,-5.493,-71.350
-0.524,-0.511,0.702,-23.071,26.489,-39.490
-0.629,-0.638,0.746,1.587,37.048,-11.658
-0.548,-0.646,0.652,27.893,26.978,7.202
-0.482,-0.654,0.365,65.979,-0.854,19.470
-0.437,-0.675,0.074,85.449,-27.222,31.433
-0.401,-0.763,-0.094,72.571,-38.147,35.583
-0.390,-0.868,-0.199,47.729,-35.889,30.151
-0.422,-0.911,-0.236,26.978,-30.396,19.531
-0.373,-0.975,-0.252,10.925,-28.809,11.108
-0.323,-0.989,-0.315,3.845,-27.344,8.118
-0.303,-0.990,-0.402,9.705,-24.231,8.545
-0.320,-0.965,-0.406,16.602,-21.545,9.155
-0.333,-0.930,-0.346,17.761,-17.639,7.263
-0.355,-0.894,-0.291,14.587,-13.672,2.441
-0.401,-0.878,-0.214,7.202,-7.507,-4.333
-0.462,-0.859,-0.119,-2.502,0.732,-10.864
-0.487,-0.826,-0.037,-9.521,13.489,-11.841
-0.497,-0.775,0.033,-15.564,25.208,-8.972
-0.515,-0.764,0.090,-18.677,29.785,-5.005
-0.550,-0.800,0.118,-18.616,28.931,-1.892
-0.547,-0.829,0.170,-15.564,23.926,0.549
-0.512,-0.821,0.162,-6.592,12.573,2.869
-0.480,-0.838,0.102,6.836,-1.953,4.944
-0.458,-0.850,0.011,15.869,-14.526,6.653
-0.434,-0.861,-0.061,18.311,-21.973,7.263
-0.411,-0.872,-0.107,16.235,-22.705,6.592
-0.413,-0.899,-0.125,13.245,-20.020,5.066
-0.427,-0.925,-0.120,11.902,-15.381,3.296
-0.439,-0.937,-0.110,12.878,-9.888,2.197
-0.446,-0.926,-0.084,14.038,-5.066,1.526
-0.464,-0.913,-0.076,12.939,-1.282,2.808
-0.493,-0.909,-0.080,8.728,1.770,4.272
-0.495,-0.909,-0.082,3.357,3.235,4.883
-0.502,-0.919,-0.080,-0.244,4.089,4.639
-0.500,-0.923,-0.075,-2.502,4.944,4.639
-0.499,-0.932,-0.053,-3.357,4.395,4.639
-0.489,-0.926,-0.029,-1.953,2.686,3.296
-0.477,-0.903,-0.044,1.770,0.854,1.587
-0.467,-0.878,-0.057,4.761,-0.671,1.038
-0.461,-0.871,-0.074,6.042,-1.770,0.854
-0.457,-0.874,-0.089,4.395,-1.038,0.427
-0.457,-0.869,-0.081,0.305,1.099,-0.549
-0.460,-0.865,-0.064,-3.113,3.845,-1.343
-0.465,-0.868,-0.049,-6.165,6.592,-1.709
-0.464,-0.880,-0.028,-8.667,8.057,-1.526
-0.469,-0.873,-0.002,-8.850,8.728,-0.671
-0.483,-0.882,0.016,-7.446,9.216,0.977
-0.481,-0.886,0.033,-4.822,7.568,2.075
-0.482,-0.892,0.024,-0.610,5.188,3.662
-0.484,-0.896,0.008,3.601,2.930,5.066
-0.485,-0.902,-0.011,6.653,0.732,6.104
-0.483,-0.902,-0.042,7.996,-0.366,6.042
-0.468,-0.906,-0.061,7.507,-0.427,5.615
-0.457,-0.911,-0.081,4.456,0.610,3.662
-0.446,-0.903,-0.094,-0.122,2.747,1.587
-0.442,-0.897,-0.091,-3.540,4.944,-0.549
-0.442,-0.883,-0.089,-5.188,6.958,-1.709
-0.451,-0.881,-0.070,-6.531,8.972,-2.014
-0.463,-0.887,-0.037,-7.141,10.803,-1.892
-0.471,-0.881,-0.006,-5.493,10.925,-1.404
-0.479,-0.878,0.005,-2.808,9.583,-0.549
-0.481,-0.880,0.000,-0.244,7.874,0.000
-0.473,-0.875,-0.003,1.099,6.104,0.854
-0.469,-0.874,-0.011,1.892,4.700,1.648
-0.462,-0.878,-0.019,2.014,3.967,1.953
-0.456,-0.880,-0.022,0.732,4.333,1.953
-0.454,-0.882,-0.019,-1.526,4.944,1.831
-0.451,-0.880,-0.014,-3.906,5.798,1.709
-0.465,-0.891,-0.012,-5.798,6.836,1.587
-0.467,-0.883,-0.009,-5.188,6.775,1.770
-0.477,-0.895,0.012,-2.625,5.188,1.160
-0.469,-0.883,-0.004,2.502,2.747,0.549
-0.462,-0.879,-0.020,7.812,-0.671,1.038
-0.461,-0.886,-0.039,9.827,-2.747,1.465
-0.454,-0.889,-0.043,9.338,-3.113,1.770
-0.456,-0.892,-0.036,7.996,-2.502,1.953
-0.458,-0.902,-0.031,6.348,-1.770,1.404
-0.455,-0.899,-0.026,4.639,-0.671,0.427
-0.458,-0.886,-0.028,3.174,0.549,0.183
-0.461,-0.877,-0.035,1.953,1.343,-0.122
-0.463,-0.874,-0.041,1.160,1.099,-0.366
-0.462,-0.865,-0.047,1.160,0.916,0.000
-0.473,-0.882,-0.036,1.404,1.343,0.000
-0.466,-0.868,-0.043,1.038,2.625,0.183
-0.470,-0.869,-0.042,0.977,2.930,0.671
-0.460,-0.873,-0.049,-0.061,3.357,0.793
-0.459,-0.882,-0.044,-2.258,4.944,0.427
-0.458,-0.885,-0.042,-3.906,6.836,-0.366
-0.457,-0.877,-0.018,-4.578,7.690,-1.404
-0.457,-0.874,-0.011,-3.967,5.676,-2.197
-0.455,-0.869,-0.008,-1.709,2.014,-2.197
-0.457,-0.860,-0.015,1.282,-1.038,-1.770
-0.460,-0.861,-0.026,2.686,-2.319,-0.793
-0.460,-0.871,-0.036,3.418,-2.625,0.793

-0.193,-0.842,-1.724,20.691,-83.496,-21.606
-0.091,-0.858,-1.930,27.710,-67.017,-17.395
-0.006,-0.882,-2.086,39.856,-44.983,-10.925
0.074,-0.904,-2.110,60.974,-20.935,-2.930
0.118,-0.904,-2.024,87.341,6.409,6.165
0.152,-0.876,-1.854,109.314,40.100,14.648
0.148,-0.859,-1.587,119.141,77.026,21.606
0.153,-0.837,-1.261,114.441,115.967,26.428
0.114,-0.859,-0.920,98.938,154.846,28.870
0.074,-0.917,-0.526,75.989,190.674,28.931
0.029,-1.011,-0.064,52.124,220.032,25.330
-0.049,-1.065,0.371,32.043,241.394,17.883
-0.111,-1.084,0.750,15.747,253.113,8.301
-0.189,-1.154,1.104,-1.099,255.920,0.061
-0.265,-1.230,1.375,-19.348,252.441,-3.662
-0.303,-1.287,1.584,-29.358,237.854,-6.165
-0.332,-1.315,1.680,-21.790,208.618,-7.568
-0.389,-1.283,1.656,-0.488,169.739,-6.836
-0.410,-1.218,1.512,26.428,128.418,-4.150
-0.375,-1.161,1.329,51.819,86.182,-2.014
-0.363,-1.099,1.095,67.017,51.636,-1.160
-0.351,-1.043,0.884,67.566,30.396,-2.686
-0.336,-0.984,0.724,55.786,22.766,-6.287
-0.302,-0.944,0.653,38.025,25.635,-10.193
-0.469,-0.932,1.815,-0.122,29.907,-12.146
-0.692,-0.235,1.236,-137.207,33.875,-14.648
-0.618,-0.824,1.172,-174.561,39.856,-45.044
-0.472,-0.911,0.996,-127.075,6.409,-56.519
-0.550,-0.937,0.538,-41.931,-26.611,-42.664
-0.464,-0.682,0.528,-2.014,-25.452,-18.188
-0.453,-0.674,0.373,21.240,-26.794,-0.061
-0.466,-0.732,0.215,51.514,-36.865,10.742
-0.464,-0.776,0.069,69.519,-42.603,19.531
-0.435,-0.842,-0.082,66.223,-42.236,24.292
-0.404,-0.937,-0.188,48.584,-37.354,21.179
-0.397,-1.006,-0.228,21.362,-25.879,10.681
-0.375,-1.016,-0.214,-7.324,-6.958,-2.258
-0.388,-0.990,-0.155,-30.823,13.428,-12.939
-0.412,-0.948,-0.068,-44.861,29.724,-19.165
-0.443,-0.892,0.017,-49.072,38.879,-21.423
-0.469,-0.850,0.063,-46.936,42.175,-21.729
-0.475,-0.804,0.101,-41.382,40.344,-20.203
-0.487,-0.772,0.127,-34.302,34.973,-17.883
-0.502,-0.769,0.135,-26.611,28.870,-14.648
-0.504,-0.764,0.159,-19.409,22.949,-10.559
-0.500,-0.768,0.180,-9.949,14.404,-7.019
-0.492,-0.767,0.155,0.916,4.272,-3.540
-0.485,-0.767,0.124,8.972,-4.456,-0.610
-0.474,-0.771,0.073,11.658,-10.620,1.526
-0.460,-0.770,0.057,9.888,-13.000,1.953
-0.454,-0.767,0.064,7.202,-12.024,1.221
-0.457,-0.769,0.090,4.395,-7.263,1.221
-0.465,-0.783,0.110,1.526,-2.686,1.953
-0.474,-0.788,0.135,0.305,0.305,3.174
-0.490,-0.797,0.144,1.831,1.343,4.944
-0.490,-0.806,0.132,6.042,-0.793,7.446
-0.486,-0.828,0.111,12.024,-4.211,10.376
-0.481,-0.848,0.082,17.151,-8.057,12.756
-0.482,-0.867,0.055,19.287,-9.888,13.306
-0.482,-0.888,0.051,18.616,-10.010,12.573
-0.478,-0.902,0.046,15.503,-9.155,10.376
-0.477,-0.915,0.038,11.292,-7.385,6.897
-0.475,-0.907,0.043,7.080,-4.944,3.723
-0.478,-0.888,0.059,4.272,-2.869,2.319
-0.488,-0.874,0.067,3.479,-1.587,2.319
-0.495,-0.862,0.074,3.479,-0.671,3.662
-0.504,-0.848,0.081,4.456,-0.244,5.127
-0.513,-0.846,0.079,6.165,-1.099,6.165
-0.507,-0.847,0.068,7.996,-2.625,7.202
-0.504,-0.854,0.056,8.240,-3.540,8.362
-0.498,-0.870,0.044,7.751,-4.089,8.789
-0.494,-0.886,0.025,7.263,-4.395,9.094
-0.492,-0.898,0.026,5.554,-3.357,8.911
-0.488,-0.899,0.028,3.235,-1.892,7.690
-0.493,-0.904,0.029,1.160,-0.549,5.615
-0.495,-0.904,0.031,-1.831,0.916,3.418
-0.496,-0.901,0.031,-4.272,1.831,1.160
-0.495,-0.904,0.040,-5.737,2.014,-0.610
-0.491,-0.900,0.061,-5.859,2.136,-1.160
-0.496,-0.901,0.079,-4.761,2.258,-1.282
-0.501,-0.898,0.095,-3.540,2.869,-1.099
-0.501,-0.890,0.100,-1.892,3.174,-0.427
-0.500,-0.875,0.095,-0.427,2.991,0.122
-0.499,-0.870,0.082,0.366,2.502,0.305
-0.494,-0.865,0.074,0.244,2.197,0.366
-0.491,-0.855,0.071,0.549,1.648,0.000
-0.489,-0.847,0.077,1.343,1.160,-0.427
-0.489,-0.844,0.083,2.441,0.854,-0.183
-0.487,-0.846,0.085,4.333,-0.366,0.061
-0.486,-0.843,0.079,6.653,-1.709,0.427
-0.484,-0.846,0.060,8.728,-2.625,1.160
-0.484,-0.860,0.049,10.071,-3.296,2.136
-0.485,-0.872,0.039,11.230,-4.150,2.930
-0.485,-0.881,0.032,12.146,-4.578,3.357
-0.474,-0.877,0.031,11.719,-3.845,2.991
-0.474,-0.872,0.033,9.460,-2.686,2.563
-0.475,-0.867,0.031,6.775,-1.892,2.502
-0.481,-0.865,0.029,4.944,-0.732,2.258
-0.480,-0.859,0.033,3.357,1.038,1.892
-0.486,-0.860,0.033,2.869,2.197,2.625
-0.491,-0.864,0.024,2.441,2.930,2.991
-0.490,-0.865,0.020,1.770,3.540,3.113
-0.486,-0.871,0.020,1.404,3.418,2.991
-0.485,-0.868,0.025,1.709,3.357,3.174
-0.485,-0.869,0.028,2.930,2.136,2.930
-0.478,-0.870,0.025,3.906,1.160,2.625
-0.473,-0.872,0.033,4.272,0.305,2.197
-0.474,-0.867,0.035,4.700,-0.671,1.465
-0.472,-0.867,0.025,4.700,-1.038,0.732
-0.468,-0.864,0.021,3.479,-0.366,0.122
-0.466,-0.862,0.028,2.014,0.549,-0.183
-0.472,-0.867,0.037,0.366,1.953,-0.122
-0.481,-0.875,0.055,-1.831,3.357,-0.122
-0.484,-0.869,0.065,-2.258,4.333,0.061
-0.484,-0.870,0.069,-1.221,3.967,0.366
-0.484,-0.875,0.065,0.610,2.319,1.099
-0.483,-0.872,0.059,2.563,0.977,1.648
-0.488,-0.869,0.048,3.174,1.282,2.197
-0.484,-0.865,0.038,1.892,2.136,2.441

-0.954,-0.936,2.184,-193.787,9.277,-1.526
-0.812,-0.815,1.689,-214.905,-23.743,-44.434
-0.605,-1.347,0.891,-103.638,-70.007,-57.434
-0.311,-1.137,0.497,-62.561,-67.017,-57.678
-0.355,-0.792,0.411,-21.790,-54.749,-40.283
-0.460,-0.694,0.382,-5.554,-34.485,-25.452
-0.457,-0.662,0.392,-3.906,-9.521,-12.085
-0.494,-0.706,0.332,0.732,10.071,0.122
-0.518,-0.774,0.279,8.240,27.100,7.568
-0.500,-0.781,0.323,8.423,39.612,11.719
-0.503,-0.798,0.300,10.559,44.800,14.038
-0.498,-0.826,0.231,15.442,44.250,15.259
-0.469,-0.839,0.139,22.949,38.086,15.808
-0.494,-0.838,0.034,33.020,27.649,15.686
-0.457,-0.863,-0.045,40.344,14.832,13.428
-0.436,-0.875,-0.125,43.762,4.272,13.123
-0.419,-0.890,-0.162,43.884,0.061,13.000
-0.430,-0.906,-0.158,39.246,1.465,12.573
-0.449,-0.919,-0.108,27.710,7.080,11.292
-0.457,-0.936,-0.052,10.986,13.367,7.385
-0.484,-0.920,-0.005,-4.883,15.808,2.930
-0.480,-0.908,0.034,-15.625,14.465,-0.183
-0.485,-0.895,0.057,-21.851,9.888,-1.587
-0.490,-0.873,0.076,-23.193,3.113,-1.770
-0.489,-0.868,0.109,-20.447,-3.540,-2.197
-0.485,-0.862,0.127,-16.052,-8.667,-2.686
-0.493,-0.867,0.143,-11.292,-11.536,-3.418
-0.486,-0.865,0.153,-6.653,-10.254,-2.747
-0.475,-0.855,0.168,-2.991,-7.141,-1.892
-0.478,-0.851,0.162,1.587,-5.127,-1.343
-0.473,-0.847,0.135,4.761,-3.174,-0.854
-0.472,-0.838,0.126,6.958,-1.709,0.244
-0.476,-0.845,0.105,10.132,-1.038,1.770
-0.480,-0.848,0.082,12.146,-0.244,3.601
-0.489,-0.858,0.067,12.268,0.000,4.333
-0.489,-0.870,0.051,11.536,0.061,4.761
-0.492,-0.892,0.028,10.010,0.122,5.005
-0.490,-0.908,0.038,6.531,1.709,4.333
-0.488,-0.914,0.060,1.892,3.845,2.991
-0.495,-0.901,0.078,-0.977,5.798,1.892
-0.498,-0.884,0.079,-1.953,6.226,1.282
-0.495,-0.878,0.076,-2.136,6.104,1.343
-0.495,-0.867,0.071,-1.404,5.737,2.136
-0.498,-0.864,0.079,0.244,4.578,2.441
-0.492,-0.861,0.073,2.563,2.808,2.258
-0.484,-0.859,0.068,4.456,0.977,2.502
-0.479,-0.871,0.060,3.784,0.061,2.197
-0.473,-0.868,0.066,2.502,0.122,1.465
-0.469,-0.865,0.076,1.953,0.000,0.854
-0.473,-0.865,0.079,1.648,-0.061,0.427
-0.479,-0.864,0.082,0.854,-0.061,0.305
-0.477,-0.865,0.088,0.305,0.427,0.305
-0.482,-0.867,0.095,-0.183,0.488,-0.183
-0.483,-0.873,0.096,-0.916,1.160,-0.427
-0.482,-0.874,0.096,-0.977,1.587,-0.488
-0.480,-0.885,0.102,0.000,1.282,-0.671
-0.476,-0.879,0.101,1.038,1.221,-0.549
-0.470,-0.879,0.094,1.526,1.770,-0.427
-0.468,-0.873,0.085,1.892,2.075,-0.549
-0.468,-0.873,0.078,2.869,2.319,-0.183
-0.464,-0.861,0.067,3.967,2.197,0.183
-0.463,-0.859,0.055,4.517,1.770,0.427
-0.461,-0.851,0.047,4.639,1.099,0.488
-0.469,-0.855,0.047,3.906,0.793,0.671
-0.474,-0.852,0.055,2.258,1.160,0.488
-0.479,-0.855,0.070,0.732,1.282,0.244
-0.483,-0.854,0.078,-0.610,1.709,0.244
-0.485,-0.860,0.087,-0.977,1.709,0.061
-0.484,-0.864,0.092,0.122,0.671,0.183
-0.487,-0.872,0.086,2.625,-0.977,1.038
-0.486,-0.870,0.074,5.188,-2.197,1.953
-0.484,-0.866,0.062,6.470,-2.319,2.319
-0.484,-0.862,0.055,6.470,-1.709,2.258
-0.483,-0.863,0.051,6.042,-0.916,2.502
-0.478,-0.860,0.055,6.348,-0.610,2.686
-0.473,-0.860,0.053,7.080,-0.244,3.113
-0.468,-0.861,0.050,7.019,0.244,3.235
-0.469,-0.862,0.050,6.042,0.488,2.991
-0.470,-0.868,0.050,4.883,1.038,2.441
-0.472,-0.869,0.051,3.967,1.404,1.953
-0.474,-0.869,0.047,3.296,1.526,1.343
-0.477,-0.871,0.044,2.930,1.465,1.282
-0.479,-0.879,0.036,2.563,1.587,1.221
-0.479,-0.884,0.038,1.648,2.136,1.099
-0.480,-0.883,0.049,0.488,2.930,1.160
-0.480,-0.881,0.062,-0.732,4.272,0.854
-0.480,-0.882,0.077,-1.526,5.188,0.244
-0.482,-0.881,0.088,-1.343,5.005,-0.061
-0.486,-0.871,0.092,0.000,3.967,0.000
-0.488,-0.867,0.094,1.343,2.686,0.000
-0.487,-0.864,0.089,2.563,0.793,0.000
-0.479,-0.870,0.071,3.479,-0.671,0.183
-0.471,-0.873,0.063,4.028,-1.526,0.305
-0.468,-0.879,0.062,3.052,-1.160,0.549
-0.466,-0.882,0.065,2.197,-0.244,0.732
-0.467,-0.875,0.072,1.160,0.793,0.793
-0.470,-0.867,0.073,0.305,1.770,0.366
-0.473,-0.858,0.071,0.122,2.197,0.427
-0.474,-0.853,0.068,0.244,2.136,0.610
-0.479,-0.856,0.065,0.732,1.587,1.038
-0.485,-0.861,0.066,1.770,1.038,1.648
-0.485,-0.862,0.071,2.319,0.732,1.648
-0.481,-0.860,0.071,2.075,1.099,1.404
-0.489,-0.887,0.069,1.587,1.404,1.343
-0.477,-0.879,0.062,1.160,1.709,1.343
-0.473,-0.876,0.066,1.709,1.465,1.343
-0.474,-0.871,0.061,1.709,1.404,1.709
-0.472,-0.868,0.055,1.038,1.709,1.709
-0.473,-0.864,0.055,0.183,1.465,1.526
-0.473,-0.861,0.056,-0.305,0.977,1.648
-0.473,-0.862,0.057,-0.427,0.854,1.404
-0.473,-0.861,0.069,-0.488,0.366,1.160
-0.475,-0.867,0.069,0.793,0.183,0.977
-0.478,-0.869,0.068,1.709,-0.244,0.854
-0.478,-0.872,0.069,2.380,-1.038,0.610
-0.480,-0.875,0.069,2.686,-1.526,0.732
-0.477,-0.876,0.062,2.747,-1.892,1.038
-0.481,-0.877,0.062,2.319,-2.136,0.916
-0.480,-0.872,0.072,1.709,-1.587,0.732

-0.062,-0.799,-2.130,7.141,-169.006,-27.588
0.099,-0.742,-2.512,11.902,-169.983,-31.311
0.273,-0.758,-2.707,30.701,-141.174,-24.536
0.403,-0.769,-2.737,59.082,-83.679,-6.409
0.424,-0.783,-2.546,90.942,-12.634,20.142
0.422,-0.837,-2.144,115.784,60.791,45.776
0.409,-0.884,-1.649,124.146,132.263,63.171
0.331,-0.949,-1.152,118.347,195.862,70.374
0.219,-1.107,-0.591,100.891,247.742,67.749
0.105,-1.208,0.002,76.965,282.471,53.589
-0.026,-1.219,0.515,56.274,299.683,32.349
-0.126,-1.172,0.945,36.316,298.706,13.000
-0.227,-1.147,1.251,10.925,282.410,1.770
-0.303,-1.193,1.419,-13.611,253.906,-1.465
-0.308,-1.295,1.425,-24.780,215.698,-2.625
-0.343,-1.350,1.371,-18.005,171.509,-5.005
-0.328,-1.331,1.236,-0.122,134.766,-7.324
-0.307,-1.239,1.091,17.822,102.966,-8.057
-0.252,-1.210,0.967,29.785,75.684,-8.179
-0.237,-1.147,0.826,32.959,61.218,-7.080
-0.257,-0.899,0.701,31.555,59.265,-4.700
-0.617,0.027,2.180,-21.606,41.260,6.897
-1.659,0.096,2.514,-254.089,-35.156,-10.071
-0.452,-0.848,2.366,-304.077,16.296,-48.889
-0.450,-1.147,1.115,-147.278,-11.963,-60.852
-0.417,-0.763,0.416,-6.897,-64.209,-49.072
-0.468,-0.582,0.358,34.668,-36.865,-19.897
-0.460,-0.564,0.441,32.349,-10.864,5.127
-0.458,-0.571,0.450,24.719,7.935,24.841
-0.520,-0.711,0.382,30.518,2.136,36.072
-0.451,-0.806,0.341,34.485,-3.662,39.307
-0.364,-0.912,0.235,29.846,-3.479,36.926
-0.325,-1.050,0.077,15.198,5.859,29.480
-0.349,-1.053,-0.021,-7.812,21.362,16.907
-0.360,-1.067,-0.056,-23.010,33.752,6.653
-0.349,-1.033,-0.136,-21.179,42.480,3.723
-0.355,-0.984,-0.229,-9.216,43.518,4.456
-0.381,-0.926,-0.272,1.404,38.757,5.737
-0.424,-0.896,-0.260,5.493,34.912,4.272
-0.472,-0.895,-0.192,2.258,33.081,0.793
-0.505,-0.904,-0.071,-5.432,31.677,-1.526
-0.521,-0.916,0.031,-13.794,29.480,-2.014
-0.516,-0.931,0.099,-16.907,24.658,-1.770
-0.513,-0.934,0.153,-14.893,16.541,-0.916
-0.512,-0.917,0.170,-11.169,9.583,-0.244
-0.510,-0.890,0.207,-8.423,5.615,-1.160
-0.504,-0.872,0.194,-3.906,3.174,-2.502
-0.500,-0.834,0.180,3.784,1.221,-1.953
-0.500,-0.803,0.185,11.414,-0.793,-0.610
-0.499,-0.790,0.184,18.616,-2.686,0.366
-0.481,-0.797,0.168,25.879,-4.578,2.014
-0.474,-0.817,0.125,33.020,-5.981,3.662
-0.465,-0.847,0.092,37.170,-6.836,4.822
-0.451,-0.877,0.070,38.208,-6.287,6.287
-0.431,-0.907,0.030,35.767,-4.639,7.446
-0.442,-0.936,0.022,30.396,-5.005,7.935
-0.427,-0.958,-0.033,24.414,-5.493,7.568
-0.431,-0.972,-0.074,18.494,-3.113,6.226
-0.438,-0.971,-0.073,10.620,0.854,4.089
-0.462,-0.968,-0.052,0.793,8.972,2.747
-0.476,-0.941,-0.003,-8.118,17.761,1.465
-0.497,-0.949,0.093,-13.489,22.522,0.000
-0.487,-0.918,0.110,-11.780,22.339,-0.854
-0.487,-0.912,0.139,-7.019,19.287,-0.793
-0.487,-0.883,0.153,-1.587,13.550,-0.610
-0.471,-0.872,0.133,6.165,6.104,-0.549
-0.463,-0.864,0.097,11.841,-0.854,-1.099
-0.453,-0.854,0.058,14.771,-5.188,-1.648
-0.448,-0.851,0.043,15.198,-7.874,-1.648
-0.451,-0.850,0.045,13.672,-8.484,-1.221
-0.449,-0.842,0.054,10.681,-7.507,-0.793
-0.438,-0.848,0.062,7.324,-5.127,0.122
-0.444,-0.874,0.046,4.211,-3.723,0.671
-0.444,-0.885,0.033,0.488,-2.136,0.732
-0.441,-0.893,0.036,-3.235,0.061,0.977
-0.443,-0.901,0.039,-4.333,1.709,1.831
-0.445,-0.903,0.049,-4.517,3.296,2.380
-0.442,-0.907,0.064,-4.883,5.005,2.502
-0.450,-0.908,0.088,-4.578,5.371,2.441
-0.447,-0.907,0.096,-4.089,5.127,1.770
-0.452,-0.899,0.092,-3.357,4.517,0.916
-0.451,-0.893,0.079,-2.441,3.418,-0.244
-0.444,-0.887,0.062,-1.343,1.953,-0.977
-0.441,-0.891,0.052,0.183,0.427,-0.916
-0.442,-0.884,0.042,1.953,-0.793,-0.549
-0.444,-0.881,0.042,1.709,-0.122,-0.610
-0.443,-0.887,0.053,0.000,1.465,-0.732
-0.451,-0.890,0.065,-0.610,2.808,-0.610
-0.455,-0.881,0.072,0.122,3.784,-0.244
-0.477,-0.905,0.081,0.183,5.005,0.183
-0.468,-0.889,0.069,-0.793,5.676,0.916
-0.471,-0.883,0.074,-0.977,5.371,1.770
-0.473,-0.879,0.072,0.122,4.028,2.563
-0.470,-0.886,0.062,1.892,2.686,3.052
-0.461,-0.888,0.065,3.845,1.709,2.563
-0.454,-0.889,0.047,5.859,0.610,1.831
-0.450,-0.890,0.027,6.714,-0.183,1.526
-0.450,-0.892,0.022,6.348,-0.305,1.526
-0.448,-0.894,0.017,6.470,-0.244,1.465
-0.450,-0.884,0.015,5.798,1.038,1.099
-0.453,-0.878,0.017,4.272,2.197,0.244
-0.449,-0.880,0.027,2.075,3.662,-0.305
-0.455,-0.882,0.047,0.000,4.211,-0.671
-0.465,-0.884,0.056,-1.038,4.089,-0.793
-0.471,-0.888,0.062,-2.258,4.517,-0.671
-0.475,-0.892,0.066,-3.479,4.883,-0.916
-0.478,-0.889,0.068,-3.174,4.822,-0.854
-0.471,-0.885,0.058,-1.526,4.333,-0.488
-0.459,-0.884,0.049,-0.061,3.845,-0.244
-0.452,-0.887,0.049,0.916,3.601,-0.366
-0.445,-0.889,0.061,0.854,3.723,-0.610
-0.441,-0.886,0.068,0.488,3.601,-0.854
-0.434,-0.882,0.074,-0.244,3.540,-1.160
-0.437,-0.881,0.078,-0.916,3.418,-1.221
-0.437,-0.871,0.079,-0.427,2.869,-1.221
-0.444,-0.862,0.072,1.221,1.587,-0.916
-0.449,-0.861,0.066,3.418,0.000,-0.061
-0.453,-0.866,0.061,5.005,-1.343,0.427
-0.453,-0.869,0.052,6.042,-2.258,0.427

-0.170,-0.827,-1.797,-7.690,-119.812,-25.085
-0.082,-0.840,-2.104,1.526,-109.863,-25.757
0.017,-0.916,-2.286,24.414,-88.928,-19.043
0.113,-0.925,-2.309,56.274,-54.321,-5.371
0.162,-0.889,-2.215,93.994,-13.367,11.414
0.167,-0.881,-2.010,126.709,27.161,27.405
0.194,-0.886,-1.734,143.372,70.190,39.612
0.206,-0.895,-1.391,144.775,112.183,47.363
0.180,-0.904,-1.036,133.545,153.198,51.270
0.116,-0.968,-0.637,112.549,194.641,51.208
0.023,-1.042,-0.228,84.473,229.248,46.021
-0.051,-1.141,0.182,59.265,249.023,35.889
-0.125,-1.199,0.546,42.664,253.906,24.536
-0.139,-1.226,0.845,35.950,243.835,15.381
-0.180,-1.268,1.072,34.180,223.633,10.132
-0.234,-1.294,1.200,32.715,203.552,8.423
-0.293,-1.314,1.256,33.325,181.152,8.667
-0.347,-1.326,1.262,35.217,156.189,7.019
-0.345,-1.281,1.221,35.400,133.911,3.845
-0.352,-1.209,1.123,35.400,110.046,0.183
-0.309,-1.164,0.946,34.363,86.060,-3.601
1.723,-3.680,2.078,17.517,68.787,-6.592
-1.924,-0.110,1.982,-207.092,-32.959,13.428
-0.587,-0.296,3.766,-306.519,-64.270,-33.325
-0.833,-1.883,0.655,-125.427,-113.953,-71.960
-0.087,-1.053,0.332,-80.994,-122.742,-86.304
-0.334,-0.558,0.256,-37.964,-53.833,-69.336
-0.461,-0.569,0.493,-17.700,-15.625,-47.791
-0.485,-0.584,0.428,-5.798,16.663,-14.221
-0.495,-0.631,0.327,18.066,19.409,14.465
-0.411,-0.656,0.227,28.870,15.442,31.067
-0.396,-0.741,0.206,26.062,17.517,36.255
-0.408,-0.866,0.206,16.663,22.949,34.485
-0.425,-0.950,0.158,9.338,28.076,30.151
-0.430,-0.999,0.087,12.207,27.405,27.344
-0.425,-1.030,0.004,22.095,22.705,26.489
-0.411,-1.003,-0.066,30.151,18.921,24.780
-0.411,-1.004,-0.127,31.799,14.771,20.264
-0.429,-0.993,-0.173,28.320,11.780,13.428
-0.439,-0.961,-0.151,23.987,10.925,6.287
-0.449,-0.934,-0.133,21.606,11.841,0.977
-0.480,-0.900,-0.100,20.325,12.695,-1.709
-0.492,-0.903,-0.045,18.127,12.024,-2.380
-0.501,-0.899,0.005,13.000,10.803,-1.770
-0.514,-0.890,0.039,7.568,9.705,-0.854
-0.510,-0.881,0.048,3.174,8.911,-0.916
-0.491,-0.869,0.053,0.000,7.935,-1.038
-0.477,-0.860,0.054,-2.075,7.751,0.000
-0.481,-0.855,0.080,-3.723,8.667,1.648
-0.470,-0.859,0.100,-1.709,7.507,2.686
-0.472,-0.869,0.111,3.601,5.127,3.052
-0.458,-0.843,0.101,10.010,3.052,2.747
-0.452,-0.836,0.078,13.855,2.930,2.319
-0.451,-0.839,0.036,16.052,4.211,2.197
-0.449,-0.847,0.017,16.846,4.700,2.563
-0.444,-0.874,0.003,16.052,3.357,2.930
-0.439,-0.908,-0.015,14.771,1.404,3.601
-0.440,-0.923,-0.026,12.451,0.122,3.906
-0.446,-0.935,-0.025,9.094,0.488,3.906
-0.449,-0.940,-0.015,4.578,2.380,3.906
-0.458,-0.941,-0.003,-0.122,4.700,3.662
-0.475,-0.935,0.002,-4.089,6.348,3.235
-0.481,-0.920,0.012,-6.104,7.019,3.113
-0.481,-0.896,0.011,-5.249,6.775,3.357
-0.481,-0.878,0.011,-2.869,5.615,4.028
-0.476,-0.877,0.001,0.793,3.296,4.089
-0.464,-0.883,-0.001,3.784,1.587,3.662
-0.454,-0.893,0.014,5.249,1.526,2.686
-0.453,-0.900,0.020,6.348,1.892,1.282
-0.451,-0.904,0.021,6.226,2.930,-0.366
-0.455,-0.903,0.033,5.676,4.517,-1.160
-0.455,-0.896,0.032,6.775,3.418,-0.916
-0.455,-0.881,0.013,7.568,0.977,-0.427
-0.453,-0.872,-0.009,5.920,-1.221,-0.122
-0.443,-0.867,-0.025,3.540,-2.991,0.061
-0.435,-0.862,-0.020,1.343,-3.906,0.000
-0.428,-0.864,-0.002,0.305,-3.784,0.732
-0.430,-0.876,0.004,0.183,-3.662,1.526
-0.442,-0.886,0.011,0.244,-2.991,1.587
-0.447,-0.892,0.016,0.610,-2.563,0.977
-0.452,-0.891,0.008,1.892,-2.502,0.671
-0.453,-0.893,-0.006,2.441,-2.502,0.244
-0.452,-0.892,-0.011,1.526,-1.831,0.000
-0.450,-0.891,-0.000,-0.610,-0.977,-0.610
-0.455,-0.897,0.007,-2.869,-0.427,-1.587
-0.458,-0.902,0.021,-4.456,0.916,-2.319
-0.453,-0.899,0.035,-4.272,1.709,-2.563
-0.452,-0.888,0.032,-2.197,1.587,-2.319
-0.450,-0.881,0.018,0.366,1.648,-1.526
-0.443,-0.872,0.004,2.319,1.343,-0.427
-0.440,-0.869,-0.015,3.540,0.854,0.244
-0.437,-0.868,-0.028,3.174,1.160,0.793
-0.437,-0.874,-0.027,1.343,1.892,0.793
-0.438,-0.882,-0.016,-1.160,2.686,0.610
-0.443,-0.885,0.003,-3.479,3.784,0.427
-0.454,-0.888,0.019,-4.700,4.639,0.488
-0.462,-0.884,0.027,-5.371,4.639,0.244
-0.464,-0.880,0.028,-4.761,4.150,0.610
-0.460,-0.878,0.023,-2.258,2.441,1.282
-0.453,-0.880,0.004,2.441,-0.732,1.648
-0.448,-0.886,-0.018,6.653,-3.113,1.831
-0.440,-0.884,-0.027,7.996,-3.418,1.404
-0.437,-0.880,-0.024,6.653,-2.625,0.488
-0.439,-0.876,-0.009,4.333,-0.854,-0.183
-0.443,-0.875,0.001,2.197,1.648,-0.488
