aX,aY,aZ,gX,gY,gZ
-0.166,0.163,0.364,84.595,104.065,34.302
-0.862,1.722,3.499,-82.825,-57.129,82.031
-0.148,2.577,1.403,-228.577,-125.122,155.762
0.151,2.135,0.500,-61.218,-47.119,112.793
-0.774,1.684,-0.431,47.668,44.556,54.932
-0.466,0.566,-0.119,65.613,45.898,3.540
-0.475,-0.207,0.054,55.237,18.555,-31.006
-0.394,0.736,0.054,17.761,-18.188,-37.109
-0.137,1.253,-0.149,-5.676,-16.174,-24.963
0.146,1.242,-0.338,-9.338,-4.578,8.728
0.177,0.934,-0.277,10.620,-4.883,12.878
0.014,0.922,-0.113,11.719,-11.963,20.874
-0.021,0.984,-0.008,2.014,-14.343,26.611
-0.063,1.001,0.174,-7.324,-9.094,26.489
-0.052,1.001,0.184,-12.024,2.563,20.935
-0.049,0.997,0.048,-10.864,12.390,13.977
-0.064,0.997,0.027,-11.414,13.123,7.935
-0.056,0.988,-0.053,-12.695,9.277,3.418
-0.068,1.036,-0.099,-9.216,5.432,1.465
-0.065,1.060,0.024,-4.395,0.671,0.793
-0.050,1.040,-0.129,5.310,2.197,1.282
-0.036,1.026,-0.117,12.695,1.709,2.869
-0.035,1.004,-0.089,17.334,-1.404,4.639
-0.044,0.986,-0.066,19.104,-3.479,7.202
-0.049,0.976,-0.037,18.127,-5.310,8.850
-0.053,0.956,-0.015,15.137,-5.859,9.033
-0.067,0.943,0.003,10.864,-5.310,8.728
-0.071,0.945,0.010,7.812,-4.333,8.118
-0.077,0.931,0.000,6.348,-3.113,6.409
-0.088,0.933,-0.002,4.944,-2.930,4.700
-0.096,0.923,-0.012,3.296,-2.930,3.723
-0.099,0.923,-0.029,1.465,-2.686,3.174
-0.103,0.919,-0.048,0.427,-2.319,2.502
-0.097,0.917,-0.054,0.122,-2.380,1.648
-0.086,0.918,-0.048,0.183,-2.380,0.977
-0.085,0.924,-0.039,-0.427,-2.808,-0.183
-0.079,0.931,-0.030,-0.366,-3.113,-1.221
-0.076,0.946,-0.019,-0.427,-3.418,-2.014
-0.075,0.968,-0.011,-0.488,-3.479,-3.052
-0.072,0.977,-0.015,-0.366,-3.906,-3.784
-0.072,0.986,-0.028,-0.793,-4.272,-4.150
-0.073,0.993,-0.045,-1.038,-4.028,-3.845
-0.078,1.003,-0.051,-0.610,-3.723,-3.296
-0.080,1.009,-0.052,0.488,-3.235,-2.441
-0.083,1.009,-0.045,1.526,-2.686,-1.709
-0.083,1.010,-0.028,2.014,-1.770,-0.977
-0.085,1.017,-0.013,2.319,-0.854,-0.244
-0.078,1.004,-0.007,2.075,0.061,0.427
-0.079,0.995,-0.000,1.892,0.610,0.854
-0.075,0.985,-0.007,1.038,0.732,0.916
-0.075,0.975,-0.019,-0.305,0.427,0.488
-0.078,0.975,-0.018,-1.587,-0.061,0.061
-0.078,0.973,-0.018,-1.709,-0.366,-0.671
-0.082,0.975,-0.028,-1.709,-0.366,-0.977
-0.085,0.976,-0.038,-1.770,-0.488,-0.977
-0.085,0.977,-0.037,-2.075,-0.549,-0.793
-0.083,0.978,-0.033,-3.052,-0.916,-0.244
-0.083,0.986,-0.027,-4.272,-1.343,0.488
-0.083,0.987,-0.023,-4.883,-1.465,1.160
-0.084,0.988,-0.016,-5.066,-1.648,1.526
-0.083,0.983,-0.016,-4.700,-1.587,1.343
-0.080,0.981,-0.024,-4.333,-1.587,1.099
-0.080,0.979,-0.025,-3.845,-1.526,0.610
-0.080,0.977,-0.021,-3.418,-1.343,0.183
-0.078,0.980,-0.024,-2.808,-0.793,-0.671
-0.076,0.984,-0.032,-1.770,-0.671,-0.854
-0.077,0.989,-0.032,-1.404,-0.854,-0.916
-0.078,0.995,-0.036,-0.916,-1.160,-0.732
-0.078,1.000,-0.039,-0.427,-1.282,-0.305
-0.077,1.000,-0.040,0.488,-1.465,-0.061
-0.077,0.999,-0.040,0.854,-1.343,0.366
-0.077,0.997,-0.037,1.160,-1.282,0.549
-0.076,0.993,-0.034,1.160,-1.160,0.671
-0.075,0.990,-0.029,1.221,-0.977,0.610
-0.079,0.987,-0.030,1.526,-0.916,0.366
-0.083,0.983,-0.032,1.831,-0.671,0.122
-0.086,0.985,-0.030,2.136,-0.671,-0.305
-0.086,0.985,-0.033,2.136,-0.488,-0.671
-0.085,0.990,-0.040,1.953,-0.122,-0.732
-0.085,0.989,-0.043,1.587,-0.061,-0.793
-0.082,0.990,-0.045,1.221,0.061,-0.732
-0.081,0.988,-0.045,1.221,0.183,-0.549
-0.079,0.988,-0.043,0.977,-0.061,-0.488
-0.079,0.986,-0.039,0.793,-0.427,-0.183
-0.076,0.987,-0.040,1.038,-0.549,-0.244
-0.075,0.987,-0.043,1.282,-0.671,-0.488
-0.075,0.990,-0.039,1.709,-0.854,-0.610
-0.074,0.986,-0.037,2.075,-0.671,-0.732
-0.074,0.985,-0.031,1.770,-0.427,-0.854
-0.076,0.985,-0.026,1.282,-0.183,-0.854
-0.075,0.989,-0.022,0.732,-0.122,-0.732
-0.076,0.990,-0.024,0.549,-0.244,-0.671
-0.077,0.993,-0.023,0.854,-0.366,-0.671
-0.079,0.991,-0.029,1.221,-0.427,-0.549
-0.077,0.989,-0.034,1.221,-0.366,-0.305
-0.074,0.987,-0.041,1.221,-0.366,0.061
-0.075,0.985,-0.039,0.610,-0.549,0.427
-0.075,0.986,-0.030,-0.244,-0.854,0.549
-0.075,0.995,-0.021,-0.732,-0.916,0.488
-0.073,0.995,-0.014,-0.244,-1.038,0.183
-0.075,0.991,-0.014,0.427,-1.099,0.061
-0.075,0.990,-0.017,0.916,-1.160,-0.122
-0.075,0.991,-0.022,0.916,-1.221,-0.305
-0.075,0.994,-0.032,0.854,-1.282,-0.122
-0.078,0.995,-0.036,0.916,-1.343,-0.061
-0.077,0.991,-0.039,1.038,-1.343,0.000
-0.077,0.993,-0.041,0.793,-1.221,0.305
-0.078,0.991,-0.040,0.427,-1.099,0.671
-0.080,0.988,-0.037,0.061,-0.977,0.854
-0.082,0.984,-0.035,-0.610,-0.488,0.854
-0.083,0.984,-0.037,-0.916,-0.305,0.793
-0.085,0.984,-0.035,-0.854,-0.061,0.610
-0.085,0.984,-0.037,-0.549,0.305,0.366
-0.084,0.989,-0.038,-0.305,0.549,0.183
-0.082,0.989,-0.041,0.244,0.488,0.000
-0.079,0.991,-0.041,0.427,0.549,0.122
-0.077,0.990,-0.038,0.488,0.549,0.244
-0.074,0.987,-0.036,0.488,0.366,0.366
-0.070,0.988,-0.037,0.610,0.183,0.488

1.522,1.007,1.860,388.977,-48.157,102.905
-1.862,-0.984,-1.749,453.125,26.062,20.935
-0.453,2.144,2.087,-119.568,-241.943,37.048
0.155,1.741,-0.908,-56.458,31.250,81.665
-0.722,0.684,-0.077,-45.715,-4.272,-13.550
-1.223,-0.035,0.011,-25.513,-32.776,-88.562
-0.360,0.986,0.309,9.888,1.465,-47.852
0.051,1.166,0.083,52.002,36.743,-18.250
0.222,0.893,0.056,38.147,27.649,-6.775
0.097,0.868,0.084,-6.775,3.113,0.610
0.075,0.896,-0.051,-15.869,-1.770,10.803
0.004,0.919,-0.055,0.916,1.282,16.052
-0.027,0.945,0.039,10.376,5.615,17.517
-0.052,0.988,0.096,9.216,11.353,14.587
-0.070,1.005,0.128,4.028,13.672,7.996
-0.072,1.013,0.132,-1.770,13.489,0.305
-0.067,1.025,0.112,-6.775,12.024,-4.761
-0.042,1.042,0.050,-8.362,10.193,-7.263
-0.071,1.018,0.033,-6.470,6.836,-8.179
-0.040,1.071,-0.078,-3.357,2.319,-7.324
-0.021,1.039,-0.062,2.808,-4.211,-3.967
-0.047,1.047,-0.062,9.155,-8.545,-0.488
-0.059,1.031,-0.026,11.292,-10.498,3.113
-0.058,1.028,0.014,8.911,-10.803,5.981
-0.057,1.010,0.047,6.653,-9.277,7.690
-0.056,0.984,0.074,5.432,-7.385,7.568
-0.055,0.963,0.091,3.906,-5.615,6.775
-0.054,0.951,0.098,2.808,-4.395,5.676
-0.057,0.943,0.098,3.052,-3.540,4.456
-0.065,0.937,0.085,3.845,-2.930,3.540
-0.069,0.930,0.065,4.761,-2.197,3.113
-0.073,0.925,0.048,5.371,-1.709,2.747
-0.077,0.933,0.045,4.578,-1.221,2.075
-0.078,0.933,0.041,4.150,-0.244,0.977
-0.077,0.941,0.038,3.418,0.732,-0.427
-0.091,0.946,0.042,2.441,1.465,-1.648
-0.069,0.956,0.036,0.793,1.038,-2.930
-0.074,0.968,0.050,-0.305,1.404,-3.906
-0.068,0.984,0.056,-2.014,1.160,-4.456
-0.066,0.994,0.057,-2.502,0.305,-4.211
-0.064,0.999,0.049,-1.770,-0.610,-3.784
-0.066,1.000,0.043,-0.854,-1.587,-2.808
-0.067,0.998,0.041,0.061,-2.319,-1.526
-0.069,0.995,0.038,0.732,-2.441,-0.061
-0.070,0.987,0.041,1.099,-2.441,0.916
-0.075,0.985,0.052,1.038,-2.197,1.465
-0.081,0.979,0.062,0.366,-1.282,1.282
-0.080,0.978,0.070,0.000,-0.549,1.099
-0.075,0.976,0.075,-0.549,0.000,0.610
-0.076,0.974,0.075,-0.793,0.427,0.061
-0.073,0.975,0.074,-1.038,0.549,-0.549
-0.074,0.978,0.070,-1.038,0.305,-0.793
-0.074,0.981,0.060,-1.160,0.183,-0.732
-0.072,0.981,0.054,-1.221,-0.183,-0.671
-0.069,0.980,0.052,-1.343,-0.488,-0.427
-0.067,0.986,0.053,-0.916,-0.671,-0.183
-0.064,0.987,0.054,-0.671,-0.854,-0.244
-0.063,0.993,0.060,-0.916,-0.793,-0.183
-0.061,0.996,0.063,-0.793,-0.488,-0.183
-0.063,1.000,0.068,-0.916,-0.366,-0.183
-0.063,1.001,0.071,-0.916,-0.061,0.000
-0.064,1.002,0.072,-1.343,0.183,0.488
-0.064,0.996,0.067,-1.099,0.366,0.854
-0.065,0.993,0.063,-0.732,0.671,1.221
-0.067,0.987,0.061,-0.061,0.610,1.465
-0.067,0.985,0.056,0.244,0.366,1.526
-0.069,0.980,0.052,0.244,0.427,1.465
-0.071,0.980,0.052,-0.122,0.244,1.404
-0.073,0.984,0.052,-0.305,-0.122,1.221
-0.075,0.985,0.052,-0.366,-0.427,0.916
-0.079,0.985,0.052,0.000,-0.671,1.038
-0.078,0.984,0.055,0.244,-0.671,1.160
-0.076,0.982,0.058,0.488,-0.610,1.038
-0.074,0.980,0.061,0.793,-0.793,0.977
-0.073,0.982,0.058,1.282,-0.854,0.854
-0.073,0.981,0.055,1.831,-0.916,0.549
-0.072,0.982,0.052,2.258,-0.916,0.366
-0.073,0.986,0.048,2.625,-1.038,0.183
-0.073,0.984,0.043,2.869,-1.099,0.183
-0.074,0.984,0.043,2.625,-0.916,0.244
-0.074,0.987,0.048,2.319,-0.793,0.427
-0.075,0.985,0.055,2.197,-0.854,0.244
-0.073,0.986,0.057,1.770,-0.671,0.183
-0.073,0.987,0.059,1.404,-0.671,0.122
-0.074,0.988,0.060,1.343,-0.671,-0.183
-0.074,0.992,0.062,0.793,-0.549,-0.183
-0.075,0.993,0.058,0.549,-0.305,0.061
-0.077,0.993,0.056,0.000,-0.366,0.366
-0.076,0.991,0.052,-0.183,-0.366,0.488
-0.073,0.988,0.050,-0.122,-0.427,0.671
-0.067,0.985,0.055,0.427,-0.854,1.038
-0.064,0.984,0.057,0.488,-0.977,1.221
-0.066,0.983,0.056,0.488,-0.977,1.221
-0.066,0.983,0.060,0.427,-0.916,1.038
-0.067,0.985,0.065,0.244,-0.854,0.916
-0.071,0.984,0.068,0.244,-0.610,0.549
-0.073,0.983,0.068,0.122,-0.549,0.427
-0.074,0.983,0.065,-0.183,-0.305,0.305
-0.078,0.980,0.054,0.122,0.000,0.183
-0.078,0.978,0.044,-0.061,0.183,0.000
-0.077,0.980,0.041,-0.244,0.305,0.061
-0.077,0.981,0.038,-0.427,0.366,-0.122
-0.075,0.983,0.044,-0.549,0.366,-0.305
-0.073,0.987,0.048,-0.488,0.244,-0.061
-0.071,0.991,0.057,-0.244,0.122,0.244
-0.071,0.991,0.061,0.427,0.000,0.305
-0.072,0.988,0.066,0.977,0.000,0.366
-0.071,0.988,0.068,1.282,-0.183,0.427
-0.071,0.989,0.066,1.038,-0.183,0.427
-0.069,0.986,0.063,0.916,-0.061,0.427
-0.070,0.984,0.060,0.977,0.305,0.244
-0.070,0.984,0.057,0.854,0.305,0.061
-0.073,0.984,0.052,0.610,0.122,-0.183
-0.076,0.983,0.052,0.549,0.000,0.000
-0.079,0.979,0.049,0.610,0.061,0.305
-0.077,0.978,0.050,0.427,-0.122,0.427
-0.076,0.979,0.051,0.610,-0.244,0.183
-0.075,0.980,0.052,0.793,-0.305,-0.122
-0.073,0.983,0.055,0.671,-0.366,-0.488

-2.363,0.587,3.853,176.575,83.252,47.729
1.378,0.227,-0.392,218.323,5.371,83.008
-0.626,2.054,1.114,-139.771,-106.812,77.759
-0.570,1.873,-0.796,-22.766,74.341,49.377
-0.778,0.125,-0.400,-12.817,29.724,-65.369
-0.931,-0.320,0.457,-43.457,-30.640,-109.253
-0.375,1.074,0.265,-38.208,-8.545,-34.607
0.348,1.190,0.119,7.751,42.236,10.010
0.346,0.985,-0.030,-7.874,25.391,16.663
0.128,0.854,-0.017,-7.690,0.793,11.292
0.007,0.837,-0.053,23.865,1.465,9.277
-0.045,0.853,-0.064,41.443,4.883,9.338
-0.077,0.927,0.052,35.156,6.836,7.812
-0.092,1.002,0.165,17.700,7.690,1.892
-0.103,1.038,0.177,0.244,9.705,-3.662
-0.098,1.044,0.131,-10.559,11.963,-7.080
-0.079,1.039,0.025,-13.611,12.268,-9.277
-0.071,1.070,0.020,-5.310,7.568,-9.094
-0.056,1.087,-0.121,2.869,7.935,-7.019
-0.059,1.087,-0.089,8.301,3.174,-3.479
-0.052,1.073,-0.045,12.390,-0.854,0.305
-0.050,1.051,-0.009,13.733,-3.418,4.272
-0.052,1.025,0.047,11.475,-6.042,7.629
-0.053,1.007,0.086,9.216,-7.141,9.338
-0.054,0.979,0.111,8.179,-6.775,9.277
-0.060,0.955,0.131,8.362,-5.432,7.935
-0.066,0.936,0.130,8.423,-4.028,6.409
-0.068,0.918,0.111,8.423,-3.174,4.761
-0.069,0.910,0.087,7.568,-2.930,3.174
-0.072,0.911,0.067,5.737,-3.052,1.587
-0.075,0.925,0.052,4.211,-2.930,0.427
-0.082,0.928,0.045,3.052,-2.319,-0.793
-0.082,0.934,0.048,2.441,-1.587,-1.465
-0.081,0.938,0.056,1.404,-1.160,-2.319
-0.074,0.953,0.067,0.000,-0.610,-3.479
-0.072,0.964,0.069,-1.465,-0.061,-4.822
-0.069,0.980,0.064,-2.686,0.244,-5.615
-0.066,0.992,0.061,-3.601,0.183,-5.737
-0.064,0.998,0.057,-3.418,-0.305,-5.371
-0.065,1.006,0.053,-2.502,-1.099,-4.272
-0.067,1.010,0.052,-0.671,-1.709,-2.991
-0.069,1.003,0.048,0.916,-2.808,-1.709
-0.070,0.998,0.047,1.831,-3.906,-0.427
-0.076,0.998,0.062,2.502,-4.150,1.648
-0.074,0.987,0.071,2.075,-3.784,2.075
-0.075,0.987,0.081,1.099,-3.235,1.953
-0.070,0.977,0.073,0.366,-2.014,1.526
-0.068,0.975,0.079,-0.977,-1.587,0.977
-0.068,0.977,0.086,-1.770,-1.343,0.366
-0.066,0.977,0.083,-2.014,-1.099,0.061
-0.063,0.974,0.076,-2.136,-0.916,-0.427
-0.062,0.976,0.067,-2.502,-0.977,-0.488
-0.062,0.979,0.060,-2.930,-1.038,-0.549
-0.062,0.980,0.059,-3.784,-1.038,-0.488
-0.067,0.988,0.063,-4.089,-0.610,-0.244
-0.068,0.989,0.065,-3.662,0.061,-0.244
-0.070,0.996,0.068,-3.479,0.244,-0.366
-0.068,0.998,0.065,-3.418,0.183,-0.305
-0.069,0.998,0.062,-2.930,0.122,-0.366
-0.069,0.998,0.057,-2.319,0.122,-0.061
-0.067,0.997,0.053,-1.770,0.244,0.244
-0.067,0.994,0.049,-1.404,0.061,0.610
-0.067,0.993,0.049,-1.221,-0.122,0.977
-0.062,0.992,0.056,-0.793,-0.183,1.282
-0.063,0.989,0.059,-0.244,-0.610,1.404
-0.062,0.987,0.063,0.122,-0.916,1.465
-0.061,0.988,0.062,-0.183,-1.038,1.465
-0.062,0.989,0.060,-0.488,-0.977,1.404
-0.060,0.987,0.062,-0.732,-1.038,1.282
-0.063,0.988,0.062,-0.610,-0.732,0.916
-0.069,0.979,0.047,-0.183,-0.305,0.916
-0.069,0.974,0.048,-0.244,-0.488,0.793
-0.070,0.972,0.052,-0.183,-0.671,0.488
-0.072,0.973,0.051,0.122,-0.793,0.061
-0.076,0.977,0.048,0.610,-0.916,-0.305
-0.077,0.983,0.052,1.160,-1.038,-0.671
-0.076,0.987,0.054,1.160,-1.099,-0.854
-0.076,0.992,0.053,0.793,-0.732,-0.732
-0.077,0.996,0.049,0.427,-0.732,-0.610
-0.075,0.998,0.041,0.061,-0.793,-0.488
-0.069,0.999,0.041,0.061,-0.854,-0.122
-0.066,0.999,0.041,0.305,-0.671,0.305
-0.065,0.999,0.041,0.610,-0.488,0.732
-0.064,0.995,0.049,0.671,-0.427,1.099
-0.065,0.995,0.056,0.732,-0.671,1.465
-0.068,0.994,0.066,0.244,-0.732,1.587
-0.068,0.990,0.070,0.061,-0.610,1.709
-0.070,0.983,0.074,0.183,-0.244,1.709
-0.071,0.979,0.071,-0.183,0.183,1.404
-0.073,0.975,0.060,-0.793,0.549,0.977
-0.075,0.976,0.051,-1.160,0.549,0.732
-0.076,0.978,0.043,-1.282,0.183,0.793
-0.073,0.977,0.035,-1.343,-0.061,0.793
-0.072,0.976,0.034,-0.916,-0.305,0.732
-0.074,0.979,0.040,-0.793,-0.366,0.793
-0.072,0.982,0.047,-1.099,-0.610,0.977
-0.071,0.982,0.059,-1.709,-0.732,0.916
-0.071,0.984,0.069,-1.953,-0.916,0.671
-0.070,0.987,0.071,-1.770,-0.610,0.061
-0.070,0.991,0.057,-0.916,-0.488,-0.122
-0.071,0.990,0.049,-0.854,-0.427,0.000
-0.071,0.990,0.044,-0.671,-0.549,0.366
-0.073,0.986,0.036,-0.732,-0.732,0.427
-0.072,0.987,0.037,-1.221,-0.916,0.671
-0.072,0.985,0.043,-0.916,-1.099,0.793
-0.071,0.983,0.044,-0.061,-0.977,0.916
-0.073,0.982,0.047,0.549,-0.977,0.793
-0.074,0.981,0.052,0.793,-0.793,0.549
-0.076,0.980,0.055,0.732,-0.305,0.427
-0.076,0.980,0.058,0.793,0.000,0.061
-0.073,0.979,0.059,0.854,0.000,-0.061
-0.072,0.982,0.053,0.916,0.366,-0.610
-0.074,0.980,0.038,0.671,0.549,-0.793
-0.074,0.982,0.032,0.244,0.366,-0.793
-0.071,0.984,0.040,-0.183,-0.061,-0.671
-0.069,0.987,0.044,0.000,0.000,-0.610
-0.068,0.990,0.049,0.427,-0.122,-0.549
-0.069,0.994,0.057,0.549,-0.244,-0.549
-0.068,0.993,0.057,0.549,-0.183,-0.244

-0.493,-0.238,-3.254,212.952,2.808,114.685
0.576,1.827,1.891,-108.032,-160.583,127.075
-0.297,2.175,1.017,-60.425,-123.352,107.300
-0.830,1.152,-0.473,-30.701,21.240,37.170
-0.687,-0.095,0.181,-39.001,0.122,-50.476
-0.567,0.514,0.281,-53.650,-19.165,-63.538
-0.172,1.213,0.123,-16.541,16.907,-23.132
0.194,1.073,0.082,6.348,25.330,-0.793
0.153,0.921,0.040,7.019,4.028,6.409
0.054,0.876,-0.184,19.104,1.709,11.597
-0.056,0.889,-0.274,28.137,2.258,14.709
-0.097,0.905,-0.159,29.785,3.174,15.381
-0.108,0.908,0.066,23.987,4.089,12.085
-0.122,0.956,0.150,15.442,7.507,5.981
-0.146,1.011,0.166,5.615,11.658,-0.793
-0.146,1.031,0.134,-2.258,12.634,-6.409
-0.126,1.040,0.054,-4.761,12.268,-9.888
-0.119,1.061,0.001,-3.784,8.789,-10.681
-0.115,1.071,-0.058,0.549,5.066,-9.521
-0.112,1.066,-0.105,5.005,0.977,-6.592
-0.116,1.057,-0.086,8.789,-3.113,-2.747
-0.130,1.030,-0.032,12.146,-5.554,0.549
-0.107,1.016,-0.039,14.526,-3.845,3.479
-0.109,1.009,0.059,10.864,-6.958,5.859
-0.108,0.994,0.077,7.935,-6.409,6.714
-0.113,0.972,0.086,6.531,-5.249,6.592
-0.115,0.948,0.116,6.531,-4.883,5.676
-0.119,0.940,0.107,7.019,-4.211,4.517
-0.117,0.927,0.085,7.446,-3.113,3.357
-0.116,0.918,0.069,6.897,-2.197,2.136
-0.117,0.917,0.058,6.042,-1.770,0.793
-0.108,0.921,0.051,4.700,-1.709,-0.488
-0.106,0.931,0.045,3.662,-1.282,-1.770
-0.113,0.934,0.042,2.991,-0.549,-3.052
-0.115,0.943,0.046,2.258,0.183,-4.333
-0.118,0.955,0.051,1.648,0.732,-5.737
-0.115,0.970,0.050,1.526,0.916,-6.226
-0.112,0.978,0.049,0.977,0.549,-6.287
-0.110,0.987,0.053,0.488,-0.061,-5.920
-0.111,0.995,0.050,0.366,-0.427,-3.906
-0.113,0.997,0.041,0.305,-1.709,-2.808
-0.119,1.000,0.040,0.366,-2.258,-1.709
-0.121,0.996,0.036,0.549,-2.441,-0.732
-0.118,0.999,0.029,0.793,-2.747,0.122
-0.123,0.997,0.050,0.427,-2.686,0.488
-0.119,0.994,0.049,-0.244,-1.770,0.671
-0.116,0.984,0.057,-0.916,-1.099,0.732
-0.114,0.986,0.067,-1.160,-0.549,0.732
-0.109,0.975,0.068,-1.587,0.366,0.549
-0.106,0.972,0.066,-2.136,0.977,0.244
-0.103,0.968,0.063,-2.930,1.343,0.061
-0.099,0.963,0.058,-3.296,1.587,-0.183
-0.103,0.965,0.055,-3.296,1.648,-0.427
-0.111,0.969,0.049,-2.991,1.587,-0.732
-0.112,0.969,0.041,-2.625,1.465,-0.854
-0.114,0.975,0.041,-2.441,0.977,-0.916
-0.114,0.980,0.037,-2.197,0.977,-0.977
-0.116,0.988,0.038,-1.953,1.038,-0.977
-0.112,0.991,0.038,-1.404,1.282,-0.916
-0.109,0.996,0.042,-0.732,1.465,-0.732
-0.104,0.999,0.050,-0.244,1.282,-0.610
-0.103,1.000,0.052,0.488,1.038,-0.366
-0.103,0.997,0.046,1.160,0.977,0.061
-0.104,0.993,0.044,1.282,0.549,0.610
-0.108,0.989,0.045,1.282,0.305,0.916
-0.110,0.984,0.052,1.770,0.366,1.038
-0.109,0.978,0.057,1.465,0.549,0.916
-0.111,0.978,0.057,1.160,0.549,0.549
-0.113,0.981,0.056,1.099,0.183,0.183
-0.113,0.981,0.048,1.282,0.488,-0.183
-0.113,0.985,0.043,1.648,0.732,-0.305
-0.113,0.984,0.043,2.136,0.793,-0.244
-0.111,0.983,0.045,2.014,0.732,-0.183
-0.109,0.981,0.046,1.953,0.488,0.000
-0.109,0.979,0.047,1.831,0.061,0.000
-0.107,0.978,0.047,2.136,-0.183,-0.061
-0.108,0.979,0.052,2.258,-0.610,-0.061
-0.106,0.978,0.057,2.380,-0.549,-0.305
-0.110,0.979,0.056,2.197,-0.244,-0.488
-0.114,0.982,0.052,1.526,-0.183,-0.732
-0.113,0.985,0.055,0.977,-0.183,-0.854
-0.114,0.986,0.052,0.977,-0.061,-0.977
-0.113,0.984,0.052,0.977,0.000,-0.854
-0.110,0.985,0.047,1.404,0.183,-0.793
-0.109,0.986,0.042,1.404,0.183,-0.610
-0.107,0.986,0.041,1.404,0.305,-0.488
-0.106,0.984,0.045,1.465,0.183,-0.488
-0.108,0.990,0.053,1.343,0.000,-0.183
-0.106,0.987,0.052,1.892,0.183,0.000
-0.107,0.980,0.054,1.953,0.061,0.122
-0.107,0.977,0.053,1.465,0.000,0.122
-0.109,0.978,0.056,1.099,-0.061,0.122
-0.112,0.976,0.058,1.038,0.122,0.183
-0.112,0.973,0.057,0.488,0.366,0.000
-0.110,0.976,0.050,0.061,0.549,-0.244
-0.111,0.979,0.045,-0.427,0.427,-0.366
-0.109,0.984,0.042,-0.671,0.122,-0.610
-0.110,0.993,0.043,-0.732,-0.305,-0.488
-0.110,0.997,0.044,-0.305,-0.671,-0.122
-0.110,0.997,0.045,0.244,-0.854,0.427
-0.108,0.998,0.046,0.732,-0.488,0.793
-0.110,0.992,0.049,0.916,0.000,0.854
-0.113,0.987,0.055,0.488,0.427,0.916
-0.111,0.984,0.060,0.122,0.671,1.160
-0.111,0.983,0.064,0.122,0.793,0.977
-0.111,0.977,0.065,0.488,0.854,0.916
-0.107,0.971,0.064,0.916,0.793,0.549
-0.105,0.968,0.058,0.854,0.732,0.183
-0.105,0.972,0.052,0.793,0.488,0.000
-0.102,0.970,0.046,0.610,0.244,-0.488
-0.102,0.973,0.042,0.366,-0.061,-0.793
-0.106,0.978,0.040,0.244,-0.671,-0.916
-0.104,0.978,0.041,0.305,-0.854,-0.793
-0.108,0.990,0.048,0.610,-1.038,-0.732
-0.113,0.988,0.046,1.038,-0.732,-0.427
-0.112,0.984,0.051,1.221,-0.244,-0.061
-0.112,0.985,0.059,1.099,-0.122,0.000
-0.112,0.984,0.057,1.282,0.183,-0.244
-0.110,0.982,0.057,1.221,0.488,-0.305

-1.623,-0.220,1.587,190.674,37.537,81.421
0.862,1.494,-0.379,-31.616,-12.329,92.346
-0.102,1.888,1.365,-75.012,-167.053,59.448
-0.669,1.474,0.438,-27.893,-56.030,60.669
-0.466,0.530,-0.109,-42.358,-1.160,5.798
-0.511,0.532,0.227,-42.786,-5.493,-24.414
-0.293,0.947,0.212,-24.536,5.981,-21.790
-0.059,1.043,0.090,-4.883,26.611,-13.550
0.016,0.955,0.140,-2.502,19.958,-8.972
0.006,0.911,0.008,2.747,15.015,-2.869
-0.038,0.936,-0.120,12.451,15.564,2.197
-0.082,0.922,-0.127,18.921,13.245,4.578
-0.106,0.932,-0.038,16.113,11.353,3.967
-0.132,0.947,0.053,11.597,15.808,2.014
-0.114,0.980,0.034,11.658,23.499,-1.038
-0.119,0.990,0.035,11.963,24.353,-4.944
-0.127,1.013,0.009,9.888,21.301,-7.629
-0.108,1.037,-0.023,6.714,17.273,-8.606
-0.104,1.047,-0.021,2.502,10.010,-8.545
-0.122,1.049,-0.017,0.671,2.502,-7.080
-0.089,1.061,-0.075,2.319,-2.747,-4.395
-0.092,1.033,-0.029,5.066,-9.216,-0.183
-0.087,1.032,-0.011,7.690,-11.902,3.174
-0.095,0.998,0.021,8.362,-12.451,5.615
-0.105,0.977,0.085,7.141,-11.475,6.897
-0.107,0.968,0.078,7.629,-7.690,7.324
-0.108,0.948,0.083,7.935,-5.981,5.981
-0.106,0.933,0.084,7.874,-4.089,4.456
-0.109,0.931,0.079,7.507,-2.869,3.052
-0.111,0.927,0.064,7.629,-1.953,1.404
-0.119,0.932,0.042,7.202,-1.465,-0.061
-0.125,0.942,0.032,6.226,-1.404,-1.221
-0.124,0.950,0.043,4.700,-1.953,-2.502
-0.128,0.961,0.063,2.869,-2.014,-3.845
-0.126,0.981,0.056,1.404,-1.770,-5.127
-0.117,0.998,0.042,1.221,-2.197,-5.920
-0.111,1.015,-0.005,1.709,-4.822,-7.019
-0.115,0.991,0.101,1.465,-9.521,-7.812
-0.112,1.000,0.064,1.282,-7.385,-6.409
-0.103,1.007,0.019,2.014,-3.296,-4.456
-0.106,1.011,0.020,1.099,-2.991,-2.502
-0.106,1.009,0.028,1.099,-3.113,-1.282
-0.106,1.004,0.042,1.343,-3.113,-0.183
-0.117,1.002,0.064,1.099,-2.747,1.404
-0.119,0.996,0.068,0.793,-1.831,2.441
-0.121,0.984,0.070,0.488,-1.099,2.502
-0.122,0.979,0.065,0.610,-0.305,2.258
-0.116,0.963,0.048,0.427,0.549,1.526
-0.110,0.962,0.048,0.244,1.099,1.099
-0.108,0.966,0.045,0.183,1.709,0.427
-0.107,0.971,0.042,0.244,1.953,0.244
-0.102,0.975,0.043,0.122,2.258,-0.122
-0.103,0.975,0.051,0.183,2.380,-0.305
-0.102,0.980,0.063,0.122,2.625,-0.427
-0.099,0.982,0.064,0.244,2.930,-0.305
-0.101,0.979,0.066,0.427,2.869,-0.183
-0.102,0.980,0.075,0.427,2.380,0.122
-0.101,0.980,0.071,0.549,1.953,0.061
-0.103,0.984,0.063,0.244,1.404,-0.244
-0.104,0.987,0.058,-0.549,0.732,-0.244
-0.105,0.989,0.051,-0.732,0.427,-0.305
-0.103,0.989,0.048,-0.122,0.244,-0.244
-0.104,0.982,0.053,0.671,0.061,-0.183
-0.105,0.982,0.052,1.221,0.000,0.000
-0.106,0.981,0.045,1.831,0.305,0.244
-0.108,0.977,0.046,2.014,0.427,0.305
-0.107,0.978,0.050,2.075,0.305,0.427
-0.108,0.979,0.056,2.014,0.366,0.366
-0.109,0.983,0.066,1.770,0.183,0.122
-0.107,0.986,0.074,1.587,0.305,0.000
-0.106,0.986,0.079,1.587,0.305,0.061
-0.107,0.985,0.082,1.587,0.183,-0.122
-0.105,0.983,0.074,1.343,0.183,-0.427
-0.103,0.983,0.060,1.404,0.122,-0.732
-0.107,0.978,0.050,1.709,-0.061,-0.977
-0.104,0.982,0.043,1.770,-0.305,-1.160
-0.106,0.990,0.038,1.526,-0.793,-0.854
-0.107,0.989,0.035,1.343,-1.160,-0.671
-0.109,0.994,0.042,1.343,-1.221,-0.427
-0.110,0.994,0.047,1.709,-0.854,-0.122
-0.110,0.994,0.057,2.075,-0.549,0.000
-0.111,0.992,0.062,1.953,-0.549,0.183
-0.106,0.989,0.062,1.709,-0.122,0.183
-0.107,0.988,0.063,1.404,0.122,0.000
-0.108,0.986,0.061,1.343,0.122,0.244
-0.110,0.984,0.049,1.221,0.000,0.427
-0.110,0.982,0.045,0.977,0.061,0.671
-0.108,0.981,0.047,0.671,0.061,0.671
-0.107,0.981,0.052,0.427,-0.122,0.732
-0.105,0.981,0.055,0.427,0.000,0.732
-0.103,0.982,0.057,0.244,0.000,0.916
-0.102,0.979,0.059,0.366,0.122,0.793
-0.101,0.977,0.060,0.183,0.183,0.732
-0.103,0.979,0.059,0.305,0.122,0.671
-0.106,0.975,0.058,0.549,0.244,0.488
-0.109,0.976,0.056,0.671,0.305,0.427
-0.110,0.977,0.057,0.549,0.366,0.366
-0.110,0.978,0.055,0.610,0.366,0.244
-0.112,0.982,0.053,0.244,0.427,0.000
-0.109,0.984,0.052,0.122,0.183,0.000
-0.109,0.989,0.054,0.488,-0.183,0.305
-0.108,0.988,0.053,0.977,-0.244,0.671
-0.103,0.985,0.059,0.671,-0.427,0.854
-0.104,0.982,0.065,0.427,-0.427,0.732
-0.104,0.986,0.062,0.122,0.000,0.427
-0.108,0.985,0.062,0.000,0.305,0.122
-0.108,0.985,0.062,-0.122,0.488,-0.122
-0.105,0.985,0.060,0.061,0.427,-0.061
-0.105,0.988,0.054,0.610,0.183,0.122
-0.106,0.982,0.048,0.854,-0.305,0.427
-0.108,0.980,0.045,1.038,-0.549,0.916
-0.110,0.977,0.050,1.221,-0.793,0.916
-0.109,0.974,0.054,1.038,-0.732,0.793
-0.114,0.977,0.068,0.183,-0.549,0.427
-0.115,0.982,0.059,0.488,0.000,0.061
-0.114,0.982,0.057,0.549,0.427,-0.427
-0.109,0.988,0.055,0.061,0.427,-0.732
-0.107,0.990,0.047,-0.061,0.488,-0.610
-0.105,0.992,0.050,-0.061,0.122,-0.305

0.036,0.578,-3.850,109.558,39.856,93.201
-1.231,2.776,4.000,-154.358,-186.035,100.525
-0.152,1.917,-0.749,-229.065,-152.893,99.121
-0.541,1.203,-0.707,-28.320,90.759,15.198
-0.795,0.129,0.270,-30.090,-27.649,-68.237
-0.524,0.750,0.338,-50.659,-13.611,-62.866
-0.166,1.202,0.170,-5.127,21.729,-21.667
0.210,0.856,0.015,34.729,30.396,5.249
0.136,0.873,0.003,7.507,-3.052,17.151
-0.028,0.966,-0.249,14.404,-3.906,21.606
-0.127,0.954,-0.188,49.133,3.662,22.278
-0.140,0.898,-0.075,58.960,16.541,21.484
-0.136,0.954,0.073,40.222,26.550,15.930
-0.151,0.978,0.150,20.447,29.480,4.883
-0.169,0.997,0.162,7.019,26.001,-4.333
-0.166,1.036,0.073,-1.160,21.973,-9.460
-0.162,1.073,-0.008,-5.066,17.090,-10.742
-0.109,1.017,-0.095,-7.202,10.620,-11.719
-0.136,1.079,-0.110,-5.432,3.296,-9.521
-0.121,1.048,-0.145,0.427,-2.197,-5.859
-0.114,1.037,-0.142,5.371,-6.714,-2.502
-0.098,1.005,-0.087,7.324,-10.864,0.793
-0.085,0.988,-0.023,6.470,-13.367,3.418
-0.087,0.975,0.037,5.005,-14.465,4.700
-0.100,0.962,0.079,4.150,-14.709,4.333
-0.108,0.943,0.081,4.028,-13.123,3.357
-0.116,0.926,0.088,3.845,-11.414,2.258
-0.123,0.918,0.078,4.028,-9.705,1.404
-0.127,0.917,0.064,4.517,-7.629,0.488
-0.128,0.916,0.051,4.517,-5.798,-0.671
-0.129,0.931,0.045,4.639,-3.723,-1.709
-0.133,0.944,0.040,4.639,-1.892,-3.174
-0.135,0.957,0.038,4.944,-0.427,-4.761
-0.132,0.971,0.025,5.676,0.488,-6.348
-0.125,0.974,0.045,5.554,0.183,-8.057
-0.125,0.982,0.059,5.310,-0.061,-8.606
-0.126,1.001,0.030,4.761,0.305,-7.996
-0.128,1.003,0.011,4.578,-0.549,-7.751
-0.124,1.006,0.019,4.395,-2.686,-7.080
-0.125,1.004,0.016,4.639,-4.028,-5.432
-0.105,1.021,-0.021,4.028,-5.432,-3.967
-0.137,1.010,-0.013,3.601,-10.803,-3.052
-0.139,1.003,0.064,3.113,-13.611,-2.136
-0.133,0.998,0.011,4.944,-9.094,-0.793
-0.126,1.002,0.009,4.333,-7.874,0.366
-0.132,0.991,0.076,2.625,-9.155,0.916
-0.131,0.993,0.069,1.831,-6.714,1.221
-0.131,0.986,0.070,0.488,-3.723,1.221
-0.128,0.979,0.075,-1.038,-2.380,0.916
-0.125,0.976,0.076,-1.465,-1.587,0.732
-0.120,0.974,0.067,-1.526,-0.916,0.671
-0.115,0.970,0.059,-0.854,-0.549,0.244
-0.112,0.971,0.049,-0.183,15.442,-0.366
-0.110,0.969,0.037,0.977,0.916,-0.427
-0.111,0.972,0.037,1.038,1.343,-0.549
-0.110,0.977,0.040,0.671,1.648,-0.549
-0.107,0.978,0.043,0.793,1.831,-0.549
-0.107,0.980,0.046,0.977,1.770,-0.610
-0.108,0.984,0.044,0.793,1.282,-0.366
-0.107,0.983,0.045,0.671,1.038,-0.183
-0.109,0.979,0.044,0.366,0.732,-0.061
-0.112,0.975,0.041,0.061,0.732,0.000
-0.112,0.971,0.039,0.061,0.732,0.000
-0.113,0.966,0.032,0.366,0.854,0.000
-0.114,0.966,0.026,0.671,0.366,0.000
-0.115,0.969,0.026,0.793,-0.305,0.000
-0.117,0.976,0.025,1.099,-0.488,-0.183
-0.120,0.983,0.026,1.282,-0.549,-0.244
-0.121,0.989,0.035,1.648,-0.244,-0.305
-0.121,0.992,0.044,2.075,0.244,-0.427
-0.119,0.990,0.048,2.441,0.732,-0.427
-0.116,0.989,0.053,2.625,0.916,-0.488
-0.115,0.988,0.051,2.625,0.671,-0.610
-0.116,0.990,0.043,2.502,0.305,-0.366
-0.117,0.988,0.036,2.686,-0.061,-0.183
-0.117,0.982,0.037,2.808,-0.305,-0.183
-0.117,0.981,0.039,3.052,-0.244,0.183
-0.115,0.977,0.039,3.357,-0.061,0.244
-0.115,0.973,0.041,3.418,0.122,0.183
-0.113,0.973,0.039,3.113,0.183,0.000
-0.114,0.974,0.034,2.869,0.305,-0.305
-0.118,0.976,0.034,2.441,0.732,-0.854
-0.119,0.981,0.042,1.709,1.038,-0.854
-0.119,0.985,0.047,1.465,1.221,-1.038
-0.118,0.989,0.048,1.526,1.526,-1.038
-0.117,0.995,0.051,1.282,1.465,-0.854
-0.114,0.996,0.050,1.221,1.404,-0.732
-0.114,0.995,0.052,0.977,1.343,-0.549
-0.111,0.994,0.053,0.854,0.977,-0.244
-0.110,0.991,0.056,0.671,0.610,0.244
-0.112,0.989,0.059,0.366,0.122,0.427
-0.114,0.984,0.062,0.122,-0.061,0.671
-0.117,0.981,0.062,0.366,-0.183,0.732
-0.118,0.976,0.057,0.488,-0.183,0.671
-0.120,0.973,0.048,0.488,-0.061,0.183
-0.121,0.976,0.043,0.427,-0.061,-0.061
-0.119,0.978,0.041,0.549,0.244,-0.305
-0.118,0.981,0.042,0.244,0.488,-0.610
-0.119,0.984,0.050,-0.061,0.549,-0.610
-0.118,0.986,0.056,-0.244,0.610,-0.549
-0.114,0.985,0.060,-0.244,0.610,-0.366
-0.111,0.989,0.061,0.061,0.305,-0.061
-0.110,0.989,0.056,0.366,0.122,0.183
-0.112,0.987,0.048,0.244,-0.061,0.183
-0.111,0.982,0.041,0.305,-0.244,0.183
-0.110,0.979,0.040,0.244,-0.183,0.183
-0.108,0.979,0.041,0.488,-0.244,0.000
-0.109,0.984,0.040,0.977,-0.366,0.061
-0.110,0.979,0.040,1.831,-0.366,0.305
-0.112,0.978,0.041,1.831,-0.305,0.305
-0.113,0.977,0.049,1.343,-0.488,0.305
-0.115,0.977,0.056,1.404,-0.244,0.061
-0.117,0.979,0.059,1.648,0.000,-0.183
-0.119,0.982,0.056,1.709,0.122,-0.366
-0.118,0.979,0.052,1.526,0.183,-0.549
-0.116,0.980,0.046,0.977,0.122,-0.732
-0.117,0.982,0.041,1.038,0.183,-0.732
-0.115,0.990,0.042,1.160,0.366,-0.793
-0.116,0.995,0.043,1.221,0.488,-0.732

-0.378,2.212,2.104,-177.124,-188.965,84.412
-0.957,1.658,0.218,-31.067,-51.636,39.307
-0.568,0.258,-0.025,29.846,38.513,-17.639
-0.364,0.282,0.308,6.042,21.851,-32.532
-0.174,1.002,0.302,-1.160,21.057,-11.841
-0.018,1.210,0.335,-7.446,14.954,1.526
0.062,0.924,0.206,-3.967,10.071,1.160
0.002,0.840,-0.154,13.428,14.343,8.545
-0.068,0.897,-0.268,24.170,14.465,15.869
-0.096,0.917,-0.161,26.184,13.184,16.235
-0.117,0.947,-0.008,21.362,15.442,11.658
-0.128,0.957,0.040,12.573,20.081,3.113
-0.134,0.971,0.007,3.479,22.095,-1.953
-0.156,1.056,0.022,-4.150,18.372,-3.906
-0.141,1.062,-0.018,-6.714,13.611,-6.409
-0.143,1.073,-0.056,-5.981,8.118,-7.385
-0.146,1.088,-0.076,-3.296,1.709,-6.409
-0.146,1.097,-0.078,-0.366,-3.601,-4.150
-0.138,1.078,-0.055,2.991,-8.484,-1.953
-0.121,1.045,-0.021,5.615,-11.963,-0.183
-0.116,1.029,0.019,5.371,-13.733,1.648
-0.113,1.003,0.065,4.333,-13.916,2.686
-0.109,0.977,0.193,3.174,-11.719,3.052
-0.099,0.972,0.070,3.235,-5.615,3.601
-0.117,0.948,0.097,4.028,-4.089,2.625
-0.118,0.942,0.110,3.845,-2.747,1.587
-0.115,0.928,0.084,3.601,-1.343,0.671
-0.120,0.931,0.067,4.456,-0.427,-0.183
-0.126,0.932,0.071,6.226,0.549,-1.038
-0.132,0.947,0.073,7.812,1.953,-2.136
-0.128,0.951,0.074,7.935,3.296,-4.089
-0.124,0.959,0.067,7.141,3.601,-6.836
-0.124,0.948,0.103,4.761,2.686,-9.094
-0.127,0.975,0.100,3.479,3.052,-9.766
-0.125,0.995,0.078,2.319,2.930,-10.315
-0.115,0.993,0.075,0.916,1.343,-10.071
-0.134,1.010,0.056,-0.366,-0.549,-7.874
-0.104,1.018,0.051,-0.732,-3.418,-5.615
-0.123,0.998,0.008,2.563,-1.587,-3.906
-0.120,1.002,0.033,1.587,-1.587,-1.648
-0.114,0.985,0.052,0.732,-1.770,0.061
-0.119,0.987,0.062,0.061,-1.709,1.221
-0.129,0.988,0.083,-1.038,-1.587,2.014
-0.124,0.988,0.078,-1.465,-1.038,2.441
-0.121,0.977,0.073,-1.587,-0.244,2.380
-0.120,0.975,0.079,-1.282,0.244,2.197
-0.118,0.972,0.076,-0.854,0.793,1.892
-0.111,0.962,0.070,-0.671,1.221,1.282
-0.109,0.957,0.058,-0.427,1.892,0.732
-0.108,0.952,0.053,-0.488,2.197,0.244
-0.107,0.947,0.051,-0.549,2.136,-0.305
-0.107,0.946,0.044,-0.916,1.831,-0.732
-0.109,0.953,0.047,-1.099,1.465,-1.038
-0.107,0.960,0.054,-1.648,1.038,-1.160
-0.107,0.973,0.063,-2.136,0.977,-1.343
-0.108,0.981,0.067,-2.197,1.282,-1.526
-0.106,0.988,0.064,-2.014,1.465,-1.770
-0.107,0.992,0.057,-1.770,2.075,-1.770
-0.107,0.996,0.057,-1.953,2.136,-1.770
-0.106,0.994,0.046,-1.953,1.953,-1.526
-0.108,0.990,0.031,-0.977,1.343,-1.526
-0.111,0.987,0.025,0.061,0.732,-1.160
-0.112,0.983,0.023,0.732,0.671,-0.732
-0.111,0.983,0.027,0.977,0.732,-0.305
-0.115,0.986,0.035,1.282,0.610,-0.122
-0.115,0.989,0.043,1.343,0.549,-0.061
-0.116,0.991,0.052,1.465,0.488,-0.061
-0.115,0.993,0.064,1.465,0.671,-0.061
-0.115,0.991,0.067,1.587,0.671,0.244
-0.115,0.988,0.065,1.892,0.732,0.244
-0.115,0.988,0.066,1.892,0.305,0.183
-0.112,0.986,0.066,1.831,0.061,0.305
-0.115,0.987,0.064,2.014,0.000,0.488
-0.110,0.976,0.053,2.625,0.000,0.732
-0.113,0.973,0.049,2.014,0.061,0.671
-0.111,0.976,0.051,1.648,-0.122,0.122
-0.112,0.977,0.051,1.404,-0.305,-0.305
-0.113,0.982,0.051,0.854,-0.427,-0.244
-0.114,0.987,0.054,0.671,-0.305,-0.183
-0.114,0.993,0.062,0.427,-0.366,-0.183
-0.113,0.993,0.064,0.610,0.000,0.061
-0.114,0.993,0.064,1.160,0.366,0.305
-0.113,0.991,0.066,1.221,0.244,0.366
-0.114,0.991,0.062,0.854,0.183,0.549
-0.113,0.988,0.055,0.793,0.244,0.610
-0.112,0.982,0.051,0.854,0.244,0.793
-0.112,0.980,0.045,0.793,0.000,0.916
-0.112,0.978,0.046,0.793,0.000,1.038
-0.111,0.974,0.053,0.977,0.061,1.221
-0.112,0.974,0.061,0.610,0.183,1.038
-0.111,0.974,0.067,0.488,0.183,1.099
-0.110,0.975,0.069,0.488,0.366,0.793
-0.109,0.973,0.069,0.549,0.427,0.488
-0.108,0.974,0.065,0.305,0.244,0.244
-0.105,0.976,0.057,0.488,0.244,0.122
-0.106,0.979,0.050,0.305,0.183,0.061
-0.110,0.977,0.046,0.427,0.061,0.061
-0.111,0.981,0.046,0.427,-0.061,0.000
-0.112,0.980,0.045,0.610,-0.122,0.000
-0.113,0.982,0.045,0.854,-0.061,-0.061
-0.112,0.983,0.048,0.732,-0.061,-0.183
-0.114,0.990,0.053,0.183,-0.122,-0.183
-0.115,0.991,0.060,-0.488,-0.183,-0.183
-0.124,0.992,0.073,-1.038,-0.305,-0.122
-0.120,0.990,0.054,0.488,0.427,0.183
-0.117,0.989,0.057,0.671,0.610,0.122
-0.118,0.980,0.048,0.977,0.549,0.000
-0.115,0.980,0.039,1.038,0.854,0.000
-0.112,0.983,0.048,1.038,0.549,0.244
-0.110,0.987,0.059,0.977,0.427,0.427
-0.107,0.987,0.060,1.160,0.488,0.549
-0.106,0.987,0.073,1.221,0.183,0.610
-0.108,0.980,0.077,1.282,0.122,0.488
-0.110,0.981,0.064,0.854,0.427,0.427
-0.110,0.982,0.057,0.183,0.061,0.427
-0.109,0.980,0.053,0.366,0.000,0.061
-0.113,0.980,0.048,0.366,-0.122,-0.183
-0.113,0.984,0.044,0.061,-0.305,0.000
-0.113,0.983,0.041,0.183,-0.305,0.183

0.417,-0.288,-2.929,109.314,57.495,67.993
0.162,1.567,0.241,-100.891,-104.797,85.510
-0.487,2.024,2.011,-157.837,-203.247,73.547
-0.687,1.210,0.252,-2.502,-65.796,25.940
-0.407,0.160,-0.205,27.954,21.362,-23.071
-0.361,0.744,0.308,-29.663,2.319,-25.513
-0.099,0.983,0.166,-9.399,19.958,-10.193
0.027,0.981,0.090,11.536,24.292,-5.432
0.023,0.896,0.045,7.080,9.583,-3.418
-0.008,0.828,-0.132,14.709,14.587,0.000
-0.051,0.863,-0.178,23.560,21.790,2.869
-0.086,0.901,-0.098,22.522,22.034,1.526
-0.096,0.938,0.002,15.442,22.339,-2.380
-0.123,0.983,0.052,8.545,23.682,-5.920
-0.115,1.010,0.013,7.324,27.161,-7.996
-0.100,1.016,-0.021,7.080,24.841,-8.423
-0.093,1.027,-0.060,4.150,15.320,-7.690
-0.105,1.047,-0.075,1.282,4.272,-5.676
-0.105,1.043,-0.086,2.380,-2.075,-3.479
-0.104,1.038,-0.068,5.188,-6.165,-1.465
-0.097,1.030,-0.035,7.385,-9.094,0.916
-0.099,1.026,0.015,6.714,-10.803,3.052
-0.103,1.013,0.060,5.066,-11.230,4.150
-0.103,0.991,0.089,4.456,-10.376,4.272
-0.102,0.963,0.087,4.700,-10.315,3.845
-0.115,0.943,0.104,3.662,-12.024,3.357
-0.107,0.936,0.080,4.761,-7.507,2.380
-0.109,0.926,0.072,5.615,-4.395,0.793
-0.112,0.926,0.046,5.737,-2.136,-0.916
-0.123,0.944,0.047,4.517,-0.793,-2.075
-0.129,0.964,0.057,3.906,0.366,-3.479
-0.129,0.982,0.065,4.028,2.563,-5.005
-0.128,0.997,0.065,4.333,4.211,-6.287
-0.124,1.014,0.031,4.700,4.333,-6.958
-0.120,1.005,0.047,4.272,2.136,-7.324
-0.114,1.013,0.043,3.052,0.549,-6.653
-0.104,1.018,0.022,2.991,-0.061,-6.042
-0.099,1.038,-0.003,2.869,-1.587,-4.944
-0.094,1.011,-0.062,3.235,-5.859,-4.333
-0.117,1.005,0.155,1.282,-12.695,-3.540
-0.105,1.009,0.023,2.991,-7.751,-1.160
-0.118,0.996,0.050,2.808,-5.432,0.061
-0.121,0.997,0.068,1.526,-4.211,1.221
-0.116,0.986,0.050,1.465,-2.441,2.075
-0.117,0.990,0.064,0.793,-1.892,2.197
-0.114,0.981,0.053,0.549,-1.221,1.892
-0.111,0.973,0.046,0.732,-0.427,1.648
-0.109,0.967,0.040,0.732,0.000,1.343
-0.108,0.963,0.037,0.549,0.000,1.038
-0.103,0.961,0.043,0.610,0.122,0.488
-0.098,0.962,0.048,0.061,0.244,0.061
-0.095,0.967,0.041,0.000,0.671,-0.671
-0.097,0.983,0.050,-0.183,1.221,-0.610
-0.099,0.982,0.062,-0.549,1.160,-0.610
-0.097,0.983,0.064,-0.793,1.343,-0.732
-0.095,0.979,0.071,-1.282,1.221,-0.427
-0.096,0.980,0.069,-1.221,1.099,-0.366
-0.097,0.983,0.058,-0.549,1.099,-0.488
-0.098,0.985,0.045,-0.061,1.099,-0.671
-0.100,0.987,0.034,0.244,1.099,-0.610
-0.104,0.987,0.028,0.610,0.977,-0.366
-0.104,0.988,0.030,0.610,0.732,-0.061
-0.105,0.982,0.033,0.488,0.671,0.305
-0.108,0.982,0.046,0.854,0.549,0.610
-0.108,0.979,0.049,1.343,0.671,0.549
-0.105,0.980,0.051,1.526,0.671,0.366
-0.107,0.983,0.055,1.587,0.732,0.244
-0.109,0.984,0.056,1.587,0.732,0.000
-0.110,0.989,0.059,1.831,0.488,0.061
-0.110,0.988,0.056,2.014,0.366,0.000
-0.109,0.988,0.052,1.953,0.244,-0.061
-0.106,0.988,0.049,1.831,0.244,0.000
-0.102,0.989,0.049,1.709,0.366,-0.122
-0.103,0.990,0.050,1.526,0.488,-0.305
-0.104,0.990,0.050,2.014,0.610,-0.244
-0.105,0.990,0.052,2.502,0.488,-0.183
-0.105,0.987,0.049,2.808,0.427,-0.122
-0.105,0.983,0.046,2.930,0.610,0.000
-0.104,0.983,0.048,2.747,0.427,0.366
-0.105,0.980,0.049,2.197,0.183,0.488
-0.105,0.980,0.051,2.136,-0.061,0.305
-0.106,0.980,0.053,2.441,0.000,0.122
-0.108,0.984,0.054,2.502,0.061,0.122
-0.105,0.984,0.053,2.075,0.183,0.122
-0.103,0.986,0.048,1.648,0.610,-0.061
-0.100,0.988,0.045,1.343,0.732,-0.305
-0.099,0.989,0.048,0.671,0.305,-0.244
-0.095,0.990,0.049,0.610,0.183,0.122
-0.096,0.988,0.048,1.038,0.244,0.305
-0.098,0.982,0.050,0.793,0.183,0.610
-0.099,0.980,0.057,0.427,0.061,0.854
-0.101,0.976,0.063,0.427,-0.061,0.977
-0.107,0.974,0.060,0.732,0.122,0.793
-0.105,0.968,0.055,0.610,0.244,0.732
-0.106,0.968,0.053,0.000,0.305,0.549
-0.106,0.969,0.047,-0.732,0.122,0.061
-0.107,0.979,0.037,-0.610,0.366,-0.427
-0.106,0.987,0.037,-0.671,0.183,-0.671
-0.106,0.993,0.036,-0.732,0.122,-0.610
-0.105,0.996,0.036,-0.183,0.000,-0.488
-0.101,0.998,0.044,0.122,-0.244,-0.122
-0.102,0.998,0.054,0.000,-0.427,0.305
-0.103,0.992,0.060,0.305,-0.122,0.671
-0.105,0.987,0.071,0.488,0.000,0.854
-0.105,0.984,0.073,0.732,0.305,0.732
-0.105,0.981,0.073,0.854,0.549,0.793
-0.110,0.977,0.065,0.977,0.732,0.366
-0.109,0.978,0.053,0.793,0.732,0.122
-0.109,0.979,0.044,0.916,0.488,0.183
-0.106,0.981,0.036,1.221,0.000,0.000
-0.103,0.988,0.037,1.160,-0.244,-0.061
-0.103,0.992,0.041,0.977,-0.366,-0.061
-0.100,0.995,0.052,0.793,-0.244,-0.061
-0.099,0.995,0.059,0.549,-0.061,0.122
-0.098,0.988,0.063,0.916,-0.427,0.610
-0.098,0.984,0.057,1.160,-0.305,0.610
-0.102,0.977,0.050,1.343,-0.061,0.549
-0.105,0.971,0.044,1.282,0.305,0.549
-0.106,0.967,0.046,0.977,0.244,0.488

0.375,0.552,-1.514,54.138,18.860,101.624
-0.131,1.946,1.982,-168.701,-197.937,74.341
-0.944,1.888,1.104,-66.650,-166.321,43.213
-0.439,0.158,0.004,43.152,-9.338,-16.907
-0.448,0.453,0.052,-4.761,21.851,-46.814
-0.165,0.973,0.228,-27.039,20.813,-24.048
0.054,1.045,0.087,-5.493,19.836,-10.132
0.112,0.975,-0.025,-2.197,3.052,-6.531
0.022,0.854,-0.087,13.062,1.038,-3.113
-0.016,0.864,-0.253,29.297,9.827,1.831
-0.048,0.888,-0.136,31.006,14.771,4.639
-0.061,0.901,0.006,23.193,17.822,2.808
-0.090,0.948,0.107,14.221,20.630,-1.953
-0.135,1.004,0.135,7.080,23.865,-7.629
-0.088,1.045,0.045,4.395,27.710,-11.536
-0.108,1.059,0.015,0.122,18.677,-12.085
-0.104,1.065,-0.028,-1.831,7.935,-10.803
-0.102,1.082,-0.058,1.343,1.160,-8.118
-0.100,1.071,-0.075,6.226,-2.991,-4.944
-0.094,1.049,-0.076,9.521,-6.226,13.733
-0.085,1.030,0.028,6.653,-11.658,3.723
-0.086,1.011,0.071,3.845,-11.963,4.639
-0.088,0.999,0.098,2.258,-10.742,4.822
-0.095,0.987,0.123,2.502,-9.338,4.089
-0.097,0.969,0.121,3.784,-6.958,2.869
-0.100,0.960,0.106,4.456,-4.395,1.770
-0.099,0.957,0.084,4.639,-2.197,0.916
-0.097,0.957,0.072,4.456,-0.549,0.244
-0.096,0.961,0.076,4.639,1.587,-0.671
-0.093,0.966,0.074,5.859,3.601,-1.526
-0.096,0.978,0.069,6.226,4.517,-2.380
-0.092,0.985,0.068,5.798,4.333,-3.723
-0.098,0.999,0.065,4.578,3.418,-4.944
-0.099,0.997,0.068,3.601,2.075,-5.737
-0.100,1.013,0.062,2.441,0.793,-5.737
-0.096,1.018,0.048,1.526,-0.183,-5.249
-0.097,1.015,0.073,0.427,-1.465,-4.333
-0.093,1.012,0.058,0.610,-1.404,-2.869
-0.091,1.015,0.041,0.549,-1.038,-1.404
-0.088,1.006,0.028,0.366,-1.221,0.183
-0.089,0.997,0.038,0.061,-1.709,1.465
-0.088,0.991,0.042,0.488,-1.770,2.869
-0.092,0.987,0.060,0.427,-1.770,3.662
-0.093,0.975,0.070,0.244,-1.343,3.601
-0.093,0.968,0.083,-0.061,-0.977,3.296
-0.094,0.972,0.093,-0.610,-0.549,2.808
-0.092,0.969,0.084,-0.732,0.122,2.197
-0.089,0.967,0.080,-1.404,0.427,1.587
-0.088,0.966,0.071,-1.526,0.977,0.854
-0.086,0.966,0.061,-0.854,1.526,0.183
-0.087,0.968,0.053,-1.465,1.343,-0.366
-0.081,0.968,0.038,-1.892,1.648,-0.549
-0.083,0.965,0.048,-2.014,1.648,-0.671
-0.082,0.973,0.046,-1.465,1.648,-0.732
-0.081,0.982,0.051,-1.221,1.526,-0.671
-0.084,0.987,0.062,-1.038,1.282,-0.671
-0.074,1.003,0.063,-0.488,1.099,-0.732
-0.089,0.992,0.085,-0.671,1.221,-0.916
-0.083,0.993,0.063,-0.122,1.587,-0.732
-0.083,0.999,0.063,-0.488,1.160,0.061
-0.082,0.990,0.059,0.000,1.221,0.122
-0.084,0.984,0.057,0.244,1.160,0.183
-0.086,0.981,0.053,0.000,0.854,0.427
-0.086,0.975,0.050,0.244,0.977,0.488
-0.089,0.974,0.051,0.610,0.793,0.427
-0.092,0.976,0.052,1.160,0.610,0.366
-0.093,0.977,0.055,1.526,0.793,0.366
-0.095,0.974,0.057,2.014,0.854,0.000
-0.094,0.978,0.057,2.319,1.160,-0.305
-0.094,0.980,0.060,2.380,0.916,-0.366
-0.092,0.984,0.061,2.380,0.671,-0.488
-0.088,0.989,0.063,2.075,0.427,-0.366
-0.086,0.990,0.063,1.831,0.244,-0.305
-0.083,0.989,0.062,1.953,0.183,-0.183
-0.080,0.989,0.063,1.953,0.061,0.183
-0.081,0.987,0.059,1.709,0.061,0.366
-0.080,0.987,0.059,1.648,0.183,0.610
-0.083,0.984,0.057,1.770,0.061,0.427
-0.086,0.986,0.053,1.770,-0.061,0.366
-0.089,0.985,0.052,1.648,-0.122,0.244
-0.092,0.987,0.053,1.465,0.000,0.183
-0.092,0.987,0.057,1.282,0.061,0.366
-0.094,0.987,0.063,0.854,0.183,0.244
-0.093,0.985,0.066,0.366,0.488,0.244
-0.095,0.981,0.067,0.122,0.732,0.305
-0.078,0.988,0.062,0.122,0.488,0.671
-0.072,0.988,0.064,-0.244,0.305,0.488
-0.087,0.973,0.069,-0.122,0.061,0.000
-0.080,0.981,0.046,-0.305,0.610,0.244
-0.080,0.980,0.059,-0.671,0.244,0.183
-0.082,0.981,0.060,-0.305,0.061,0.305
-0.086,0.984,0.063,-0.366,0.122,0.305
-0.084,0.986,0.068,-0.671,0.183,0.427
-0.096,0.979,0.080,-0.549,0.122,0.366
-0.092,0.978,0.063,0.305,0.366,-0.061
-0.093,0.984,0.062,0.244,0.427,0.305
-0.092,0.979,0.057,0.549,0.793,0.122
-0.093,0.981,0.058,0.427,0.549,0.061
-0.091,0.985,0.049,0.549,0.244,-0.122
-0.090,0.989,0.050,0.366,0.183,-0.305
-0.089,0.992,0.059,0.061,-0.061,-0.183
-0.088,0.996,0.062,0.305,0.000,0.122
-0.089,0.998,0.071,0.854,0.122,0.122
-0.090,0.997,0.077,1.282,0.366,0.000
-0.091,0.995,0.076,1.160,0.427,0.183
-0.094,0.993,0.075,1.343,0.854,0.366
-0.094,0.989,0.066,1.587,1.221,0.366
-0.093,0.984,0.052,1.648,1.404,0.305
-0.090,0.980,0.049,1.526,1.404,0.488
-0.092,0.979,0.055,1.160,1.465,0.427
-0.092,0.976,0.057,1.221,1.343,0.305
-0.091,0.980,0.060,1.221,1.038,0.183
-0.091,0.984,0.059,0.854,0.732,0.183
-0.088,0.984,0.059,0.732,0.427,0.183
-0.085,0.984,0.057,1.160,0.427,0.244
-0.083,0.983,0.053,1.221,0.061,0.305
-0.082,0.985,0.055,1.282,-0.244,0.427
-0.082,0.978,0.056,1.587,-0.061,0.610
-0.084,0.973,0.064,1.343,0.183,0.732

-0.242,1.932,1.067,-134.705,-149.353,83.923
-0.619,0.939,-1.109,31.860,50.415,7.996
-1.010,0.115,0.169,7.996,-20.264,-61.035
-0.480,0.833,0.323,-1.221,-12.817,-52.124
0.015,1.128,0.140,-0.732,16.296,-13.733
0.190,1.066,0.081,-2.686,12.024,-0.488
0.078,0.955,0.094,4.333,2.930,0.793
-0.005,0.892,-0.141,14.893,6.897,4.395
-0.022,0.917,-0.208,25.635,10.986,12.817
-0.055,0.960,-0.033,25.391,8.179,16.357
-0.090,0.964,0.097,17.944,8.484,11.108
-0.119,0.976,0.088,9.644,12.085,3.235
-0.137,0.997,0.057,1.770,13.733,-2.258
-0.138,1.021,0.022,-3.357,11.841,-5.066
-0.121,1.036,-0.027,-2.197,9.155,-5.310
-0.118,1.042,-0.061,0.916,5.554,-4.028
-0.109,1.055,-0.096,3.357,1.587,-1.892
-0.102,1.045,-0.096,5.127,-1.892,0.977
-0.095,1.037,-0.053,4.517,-5.249,3.906
-0.088,1.026,-0.002,3.052,-7.263,6.165
-0.102,1.004,0.029,2.075,-7.202,7.141
-0.094,0.993,0.069,1.282,-7.202,7.507
-0.102,0.970,0.086,1.465,-4.883,6.653
-0.101,0.949,0.083,1.526,-2.625,5.432
-0.098,0.934,0.095,1.282,-2.136,4.517
-0.097,0.924,0.081,2.014,-1.282,3.052
-0.098,0.919,0.062,3.479,0.427,1.831
-0.099,0.927,0.053,4.333,1.709,1.160
-0.101,0.934,0.041,5.310,3.357,0.061
-0.107,0.945,0.033,5.310,5.066,-1.282
-0.112,0.956,0.038,4.639,5.676,-2.686
-0.104,0.984,0.049,5.066,5.859,-3.479
-0.107,0.982,0.025,5.554,6.165,-4.150
-0.107,0.993,0.032,4.028,5.371,-4.456
-0.097,1.014,0.033,2.502,4.028,-4.089
-0.109,0.998,0.037,2.014,3.174,-4.028
-0.106,1.006,0.023,1.770,1.465,-3.113
-0.110,1.013,0.027,0.549,-0.244,-1.831
-0.110,1.008,0.026,0.061,-1.160,-0.732
-0.113,1.001,0.032,-0.122,-1.587,0.366
-0.116,0.992,0.032,0.183,-1.648,0.977
-0.115,0.986,0.037,-0.549,-1.465,1.343
-0.113,0.983,0.046,-1.953,-1.038,1.587
-0.112,0.985,0.058,-2.625,15.198,0.916
-0.110,0.983,0.060,-2.258,0.793,0.610
-0.114,0.974,0.058,-2.014,0.854,0.427
-0.103,0.990,0.061,-1.526,0.854,0.549
-0.104,0.981,0.042,-1.343,1.221,0.122
-0.104,0.986,0.044,-1.648,1.465,-0.305
-0.100,0.986,0.036,-1.160,2.014,-0.549
-0.102,0.983,0.033,-1.038,2.197,-0.488
-0.094,0.993,0.039,-1.099,1.892,0.000
-0.092,0.988,0.034,-0.732,1.709,0.122
-0.094,0.984,0.037,-0.916,1.465,-0.061
-0.094,0.979,0.031,-1.221,1.160,0.366
-0.093,0.979,0.028,-0.854,0.732,0.366
-0.094,0.979,0.032,-0.732,0.366,0.366
-0.097,0.977,0.033,-0.549,0.427,0.488
-0.101,0.977,0.039,-0.244,0.366,0.305
-0.103,0.981,0.043,0.427,0.427,0.305
-0.108,0.982,0.037,0.854,0.488,0.122
-0.110,0.984,0.038,1.099,0.427,0.122
-0.108,0.984,0.033,1.282,0.732,0.061
-0.107,0.984,0.029,1.526,0.793,0.061
-0.108,0.984,0.031,1.831,0.854,-0.183
-0.105,0.981,0.029,1.953,0.916,-0.244
-0.100,0.982,0.027,2.014,0.793,-0.183
-0.064,1.009,0.025,2.441,0.488,-0.244
-0.110,0.971,0.032,2.686,-0.061,-0.977
-0.107,0.982,0.043,2.380,-0.488,-0.671
-0.100,0.990,0.027,1.892,-0.122,-0.244
-0.100,0.990,0.046,1.099,-0.305,-0.061
-0.102,0.991,0.047,1.404,-0.183,-0.122
-0.102,0.994,0.042,1.526,0.366,-0.061
-0.103,0.996,0.043,1.221,0.427,0.000
-0.105,0.996,0.038,0.916,0.610,0.244
-0.106,0.994,0.030,1.343,0.610,0.305
-0.107,0.991,0.028,1.282,0.305,0.671
-0.108,0.986,0.031,1.099,0.183,0.977
-0.107,0.983,0.034,1.099,0.122,1.160
-0.106,0.982,0.037,1.099,0.122,1.343
-0.107,0.983,0.043,0.610,0.183,1.221
-0.106,0.986,0.042,0.183,0.366,0.854
-0.104,0.990,0.042,0.000,0.549,0.549
-0.104,0.992,0.040,0.000,0.610,0.427
-0.103,0.992,0.038,0.244,0.671,0.610
-0.106,0.988,0.042,0.488,0.671,0.977
-0.106,0.980,0.040,0.488,0.610,1.404
-0.104,0.973,0.042,0.977,0.610,1.587
-0.102,0.972,0.041,0.977,0.549,1.587
-0.102,0.974,0.042,1.160,0.610,1.343
-0.102,0.974,0.036,1.099,0.549,1.038
-0.104,0.984,0.040,0.488,0.366,0.610
-0.103,0.985,0.040,0.488,0.610,0.366
-0.103,0.984,0.040,0.854,0.854,0.244
-0.104,0.983,0.039,0.610,0.916,0.305
-0.107,0.982,0.039,0.610,0.854,0.183
-0.108,0.983,0.039,0.427,0.793,0.244
-0.109,0.982,0.037,0.488,0.977,0.244
-0.109,0.981,0.031,0.183,0.671,0.183
-0.111,0.984,0.033,0.000,0.549,0.366
-0.110,0.984,0.037,-0.061,0.305,0.427
-0.109,0.984,0.038,0.244,0.061,0.610
-0.107,0.984,0.044,0.916,0.122,0.671
-0.106,0.983,0.049,1.221,0.305,0.732
-0.104,0.979,0.050,1.099,0.305,0.610
-0.102,0.978,0.048,1.038,0.488,0.366
-0.101,0.981,0.043,0.793,0.305,0.305
-0.102,0.982,0.038,0.732,0.122,0.244
-0.102,0.983,0.035,0.977,0.061,0.244
-0.104,0.985,0.034,1.343,0.122,0.183
-0.106,0.988,0.034,1.282,0.183,0.122
-0.108,0.988,0.037,1.160,0.366,0.244
-0.110,0.985,0.036,1.099,0.610,0.244
-0.111,0.986,0.039,1.099,0.732,0.244
-0.109,0.987,0.044,1.038,0.610,0.061
-0.107,0.990,0.045,0.610,0.427,0.061
-0.104,0.992,0.046,0.488,0.122,0.122
-0.103,0.990,0.045,0.427,-0.061,0.122

0.054,1.262,0.585,22.644,-212.769,-7.996
-0.572,1.675,0.374,-31.250,-137.207,18.250
-0.736,0.288,0.457,-38.147,-104.919,7.385
-0.757,0.031,0.011,-25.085,-77.820,-9.460
-0.492,0.844,-0.174,-57.800,-62.744,-9.888
-0.076,1.021,0.043,-17.761,-27.954,7.141
0.159,0.851,0.314,19.165,-5.615,15.137
0.131,0.916,0.073,15.259,-5.981,14.893
-0.045,0.877,-0.040,8.972,-14.709,13.367
-0.168,0.958,-0.217,-4.272,-8.057,15.869
-0.177,0.867,-0.326,-9.583,14.404,18.860
-0.207,0.826,-0.184,-5.310,40.161,13.672
-0.270,0.807,0.019,22.156,52.124,7.080
-0.281,0.740,0.257,51.208,55.176,1.587
-0.251,0.871,0.336,41.260,42.542,-6.714
-0.288,0.864,0.168,-9.216,2.625,-10.010
-0.305,0.888,0.098,-11.047,-6.104,-14.526
-0.292,0.987,0.022,-7.324,-8.850,-17.578
-0.267,1.038,-0.008,0.610,-9.155,-16.724
-0.264,1.076,0.016,8.423,-9.766,-14.465
-0.256,1.100,0.055,12.512,-10.132,-11.047
-0.270,1.103,0.081,11.108,-10.559,-6.958
-0.278,1.109,0.112,4.517,-10.132,-2.441
-0.282,1.099,0.128,-2.075,-8.911,2.563
-0.280,1.081,0.131,-3.296,-9.888,6.653
-0.284,1.053,0.114,-0.793,-12.024,8.789
-0.286,1.025,0.083,1.709,-12.817,9.644
-0.289,0.994,0.056,1.892,-13.123,9.094
-0.279,0.963,0.039,1.038,-12.573,7.324
-0.283,0.959,0.025,-0.488,-10.132,5.493
-0.273,0.956,0.015,-1.282,-7.996,3.296
-0.270,0.960,0.015,-3.113,-5.737,1.709
-0.273,0.963,0.012,-4.700,-3.052,0.671
-0.278,0.963,0.029,-5.432,-0.061,-0.366
-0.277,0.958,0.057,-5.737,2.747,-1.587
-0.289,0.963,0.120,-3.967,4.395,-2.197
-0.293,0.957,0.117,-0.916,3.845,-1.343
-0.281,0.946,0.120,1.892,2.991,0.122
-0.268,0.950,0.121,3.113,0.793,1.343
-0.250,0.952,0.113,3.052,-1.648,2.441
-0.239,0.948,0.095,2.380,-2.686,3.479
-0.229,0.948,0.083,1.770,-3.601,3.967
-0.220,0.950,0.073,0.122,-3.845,4.333
-0.214,0.945,0.063,-0.854,-3.845,4.639
-0.209,0.933,0.052,-0.671,-3.479,4.333
-0.214,0.930,0.039,1.526,-2.991,3.723
-0.218,0.916,0.043,2.869,-2.625,2.991
-0.228,0.909,0.052,2.197,-2.441,2.075
-0.233,0.910,0.062,1.587,-2.563,0.916
-0.238,0.919,0.073,1.282,-2.441,-0.916
-0.247,0.932,0.072,0.305,-2.319,-2.319
-0.253,0.944,0.071,-0.977,-2.441,-3.174
-0.255,0.951,0.073,-2.136,-2.686,-3.723
-0.259,0.959,0.074,-3.174,-3.418,-3.967
-0.263,0.965,0.080,-3.662,-3.723,-3.662
-0.258,0.957,0.085,-2.502,-3.601,-3.357
-0.272,0.969,0.091,0.366,-3.296,-3.235
-0.269,0.968,0.088,2.869,-2.258,-2.747
-0.265,0.974,0.090,2.747,-1.465,-2.258
-0.267,0.982,0.084,2.686,-1.160,-2.014
-0.266,0.985,0.076,2.808,-0.916,-1.953
-0.262,0.991,0.077,1.648,-0.977,-2.075
-0.256,0.993,0.081,-0.488,-2.014,-1.953
-0.253,0.985,0.085,-3.235,-2.625,-1.953
-0.255,0.973,0.083,-2.380,-2.747,-1.526
-0.257,0.969,0.084,-2.075,-2.808,-1.099
-0.259,0.956,0.086,-1.404,-2.563,-0.977
-0.257,0.949,0.080,-0.854,-2.197,-1.221
-0.256,0.952,0.069,-0.793,-2.136,-1.526
-0.253,0.959,0.056,-1.526,-2.380,-2.319
-0.253,0.974,0.050,-2.808,-2.686,-2.991
-0.251,0.987,0.053,-3.601,-2.686,-3.418
-0.250,0.993,0.063,-3.906,-2.380,-3.296
-0.250,0.999,0.071,-3.845,-2.136,-3.113
-0.249,0.996,0.075,-3.235,-1.709,-2.625
-0.241,0.999,0.086,-2.258,-1.465,-1.892
-0.255,0.980,0.094,-2.258,-2.197,-1.038
-0.252,0.984,0.072,-2.197,-3.418,-0.427
-0.249,0.980,0.050,-3.052,-3.601,0.000
-0.249,0.972,0.036,-3.662,-3.540,0.183
-0.247,0.969,0.029,-4.089,-3.174,0.244
-0.239,0.970,0.037,-4.883,-2.747,0.122
-0.237,0.966,0.047,-5.493,-2.441,15.564
-0.249,0.958,0.069,-5.066,-1.526,0.549
-0.250,0.954,0.078,-4.028,-1.404,0.977
-0.254,0.949,0.085,-3.113,-1.526,1.160
-0.252,0.946,0.087,-2.930,-2.258,1.160
-0.252,0.955,0.074,-3.113,-2.930,0.610
-0.253,0.964,0.052,-3.357,-3.906,-0.427
-0.274,0.958,0.037,-4.150,-4.395,-1.160
-0.232,0.979,0.019,-5.005,-4.639,-0.854
-0.255,0.975,0.054,-6.287,-4.456,-1.465
-0.235,0.983,0.037,-6.653,-3.479,-1.160
-0.232,0.962,0.056,-9.216,-4.272,-2.197
-0.240,0.989,0.065,-13.123,-5.005,-3.357
-0.243,0.987,0.069,-15.442,-6.653,-3.479
-0.251,0.982,0.063,-17.578,-7.385,-2.686
-0.244,0.982,0.044,-18.738,-8.484,-1.160
-0.253,0.971,0.052,-18.066,-9.827,-0.427
-0.246,0.969,0.039,-16.174,-9.399,0.427
-0.245,0.963,0.036,-15.076,-9.583,1.038
-0.249,0.960,0.045,-15.076,-9.277,1.343
-0.307,1.036,0.262,-12.085,-7.446,2.075
-0.205,0.963,0.053,1.343,0.183,3.113
-0.257,0.994,0.092,4.150,-2.258,3.174
-0.269,0.998,0.081,0.610,-4.517,2.380
-0.263,0.987,0.047,-0.732,-4.517,3.052
-0.272,0.989,0.052,-1.953,-5.554,3.479
-0.271,0.993,0.052,-1.709,-6.042,3.845
-0.272,0.992,0.051,-0.183,-5.798,4.089
-0.270,0.992,0.046,1.404,-5.310,4.700
-0.259,0.980,0.027,2.563,-4.456,4.822
-0.256,0.977,0.034,1.160,-4.578,5.005
-0.252,0.974,0.047,0.488,-4.272,5.066
-0.253,0.967,0.065,2.136,-3.601,4.761
-0.254,0.966,0.080,4.333,-3.174,4.639
-0.257,0.964,0.090,6.531,-2.808,4.822
-0.261,0.956,0.095,8.057,-2.991,4.700
-0.263,0.956,0.090,9.216,-3.296,4.639

2.470,2.157,3.716,-19.409,108.582,68.237
0.079,0.746,1.902,159.607,-66.406,-33.875
0.321,0.181,-1.011,52.185,-43.701,-77.637
-2.832,-1.021,2.810,-87.463,-208.008,-207.642
-0.437,1.475,-1.537,-171.936,-183.350,-50.842
1.419,1.287,-2.194,-206.299,-101.685,33.386
0.137,1.474,1.640,-207.886,-85.693,14.343
0.230,1.109,-0.199,85.693,44.250,2.441
-0.039,0.685,0.976,324.585,72.571,24.231
-0.301,1.218,0.385,220.459,56.396,28.992
-0.261,0.671,-0.261,36.438,43.518,9.033
-0.390,0.597,-0.238,-45.044,25.696,-5.127
-0.469,0.950,0.002,-24.902,15.442,-11.597
-0.286,1.073,0.119,36.072,26.367,-9.155
-0.198,1.022,0.239,67.932,29.419,-1.953
-0.191,0.952,0.203,49.683,11.658,4.150
-0.265,0.926,0.166,17.944,-8.362,5.127
-0.338,0.952,0.150,2.258,-16.907,3.113
-0.336,0.940,0.173,-0.244,-17.944,1.465
-0.294,0.906,0.196,-2.380,-16.663,1.038
-0.264,0.894,0.212,-8.057,-13.184,0.671
-0.238,0.913,0.208,-12.817,-8.728,-1.160
-0.227,0.939,0.201,-13.000,-5.005,-2.441
-0.223,0.970,0.193,-10.498,-5.432,0.122
-0.279,0.994,0.144,-5.737,-11.719,2.380
-0.309,0.982,0.108,-5.127,-13.611,4.944
-0.317,0.976,0.087,-5.676,-14.465,7.324
-0.320,0.962,0.091,-7.141,-13.611,6.958
-0.334,0.952,0.121,-7.935,-9.583,4.883
-0.333,0.954,0.161,-7.935,-4.517,2.625
-0.316,0.957,0.197,-6.531,-0.488,0.671
-0.302,0.975,0.232,-4.333,1.709,0.061
-0.293,0.992,0.228,-3.052,0.977,0.244
-0.283,1.003,0.205,-2.747,-1.831,1.404
-0.279,1.007,0.175,-3.723,-5.432,2.563
-0.273,1.008,0.142,-5.310,-9.644,3.418
-0.268,0.995,0.122,-7.080,-12.817,4.578
-0.262,0.973,0.113,-7.690,-14.038,5.432
-0.263,0.945,0.135,-6.958,-14.160,5.737
-0.273,0.923,0.140,-5.676,-12.939,4.822
-0.282,0.904,0.152,-5.737,-10.498,3.540
-0.289,0.902,0.169,-5.859,-7.690,2.197
-0.284,0.898,0.160,-3.357,-4.883,1.038
-0.274,0.905,0.167,1.526,-3.357,0.122
-0.270,0.932,0.166,5.859,-3.113,-1.648
-0.265,0.937,0.169,6.775,-5.737,-1.404
-0.242,0.906,0.243,-1.099,-7.874,1.465
-0.284,0.925,0.191,-17.456,-11.658,9.155
-0.292,0.927,0.157,-20.081,-17.822,7.080
-0.281,0.919,0.144,-25.024,-18.494,5.249
-0.256,0.911,0.128,-26.489,-19.897,3.601
-0.256,0.925,0.095,-28.503,-20.630,0.793
-0.276,0.951,0.088,-28.931,-20.264,-1.587
-0.296,0.968,0.096,-27.283,-18.372,-2.747
-0.309,0.984,0.091,-23.987,-14.526,-1.831
-0.296,0.972,0.099,-18.066,-10.254,0.793
-0.298,0.955,0.103,-13.855,-7.935,3.723
-0.306,0.939,0.105,-13.184,-6.592,5.676
-0.307,0.922,0.117,-13.123,-5.798,6.470
-0.292,0.922,0.132,-13.611,-5.066,6.104
-0.284,0.938,0.119,-13.733,-4.700,5.249
-0.286,0.945,0.110,-13.489,-5.859,3.845
-0.285,0.952,0.094,-14.587,-6.836,2.380
-0.297,0.963,0.091,-14.282,-7.874,1.465
-0.301,0.956,0.085,-14.648,-7.568,2.197
-0.314,0.959,0.096,-14.160,-8.118,2.197
-0.316,0.955,0.093,-10.193,-7.446,1.465
-0.310,0.953,0.073,-6.836,-5.920,1.038
-0.307,0.954,0.060,-8.057,-5.188,1.160
-0.304,0.960,0.058,-9.033,-4.578,1.221
-0.303,0.969,0.062,-7.568,-3.845,0.793
-0.307,0.968,0.061,-5.188,-3.052,0.244
-0.308,0.953,0.073,-4.822,-2.563,-0.061
-0.307,0.950,0.073,-5.554,-2.808,-0.366
-0.311,0.947,0.080,-5.920,-2.808,-0.732
-0.316,0.959,0.076,-4.761,-2.747,-0.793
-0.314,0.973,0.073,-3.235,-3.540,-1.099
-0.312,0.992,0.072,-1.282,-3.662,-0.366
-0.307,0.990,0.066,-0.610,-3.479,0.916
-0.298,0.967,0.051,-0.732,-3.723,2.747
-0.297,0.955,0.039,-0.854,-3.845,4.089
-0.286,0.937,0.033,-1.160,-3.662,3.845
-0.289,0.930,0.031,-0.916,-2.930,2.502
-0.292,0.928,0.030,-0.916,-0.793,0.183
-0.298,0.917,0.065,-1.404,-0.122,-0.977
-0.303,0.918,0.085,-2.014,0.305,-1.892
-0.302,0.923,0.101,-1.892,0.366,-2.991
-0.300,0.944,0.092,-0.549,0.183,-3.601
-0.300,0.965,0.081,0.671,-0.244,-3.967
-0.295,0.979,0.070,0.854,-0.977,-3.906
-0.299,0.997,0.067,0.244,-1.587,-3.174
-0.296,0.996,0.069,0.854,-2.075,-2.075
-0.294,0.986,0.059,1.831,-2.136,-1.160
-0.301,0.975,0.054,2.136,-1.953,-0.305
-0.305,0.956,0.049,1.953,-1.953,0.061
-0.305,0.941,0.065,1.160,-1.343,0.061
-0.306,0.941,0.070,0.610,-1.587,0.244
-0.301,0.945,0.068,0.732,-2.075,0.305
-0.299,0.950,0.060,1.526,-2.502,0.122
-0.295,0.953,0.050,2.014,-2.563,-0.122
-0.295,0.958,0.042,1.953,-2.747,-0.183
-0.295,0.960,0.036,1.343,-3.113,-0.488
-0.296,0.957,0.035,0.671,-3.357,-0.610
-0.300,0.950,0.047,-0.305,-2.869,-0.977
-0.305,0.963,0.069,-0.793,-2.380,-1.160
-0.311,0.970,0.088,-1.099,-1.953,-1.404
-0.310,0.978,0.082,-1.038,-2.075,-1.160
-0.315,0.993,0.078,-0.488,-2.686,-0.366
-0.311,0.989,0.058,-0.061,-3.479,0.366
-0.302,0.977,0.034,-0.488,-4.028,1.221
-0.299,0.968,0.035,-0.916,-4.333,1.648
-0.297,0.953,0.040,-0.366,-4.211,1.831
-0.291,0.943,0.036,-0.549,-3.418,1.343
-0.290,0.926,0.053,-0.732,-3.235,0.610
-0.297,0.925,0.068,-2.441,-2.625,-0.183
-0.305,0.942,0.067,-4.700,-3.662,-1.404
-0.307,0.958,0.056,-4.150,-4.517,-1.648
-0.306,0.980,0.046,-3.967,-4.639,-1.587
-0.305,0.985,0.046,-3.235,-4.333,-1.648

-0.656,0.303,2.318,32.654,16.113,-6.958
-0.506,0.899,1.805,-158.447,-50.659,-1.831
-0.677,0.318,0.924,-97.595,-145.447,-5.310
-1.029,0.651,-0.097,2.319,-141.113,-25.513
-0.866,0.846,-0.249,36.743,-68.420,-19.592
-0.356,0.894,-0.163,28.320,-1.892,3.296
-0.105,0.823,0.210,14.648,14.038,7.751
-0.135,0.828,0.247,32.349,17.029,3.662
-0.146,0.835,0.017,46.997,19.531,3.845
-0.191,0.751,-0.147,34.119,18.311,5.920
-0.237,0.830,-0.154,19.653,18.372,4.639
-0.265,0.827,-0.171,17.090,20.508,-0.732
-0.279,0.886,-0.079,17.151,25.696,-4.272
-0.273,0.897,0.083,12.268,26.367,-8.789
-0.263,0.972,0.207,0.427,22.827,-12.268
-0.273,0.998,0.229,-7.996,14.526,-16.357
-0.288,1.039,0.130,-6.836,2.502,-22.095
-0.329,1.131,-0.030,-4.333,-13.672,-18.982
-0.320,1.120,-0.013,-5.554,-14.771,-13.245
-0.319,1.074,0.030,-4.700,-12.756,-7.629
-0.321,1.021,0.076,-3.357,-10.864,-3.784
-0.331,0.990,0.117,-2.991,-9.460,-1.709
-0.358,0.964,0.147,-2.747,-9.399,-0.549
-0.378,0.965,0.154,-3.235,-10.254,-0.671
-0.396,0.980,0.147,-3.357,-10.986,-0.183
-0.397,0.997,0.121,-1.343,-10.620,1.404
-0.378,0.995,0.089,2.136,-8.789,2.808
-0.365,0.984,0.061,4.211,-4.883,3.662
-0.353,0.975,0.050,2.869,-2.197,3.784
-0.327,0.972,0.040,-0.366,-0.427,3.052
-0.317,0.990,0.044,-3.357,0.122,1.587
-0.304,1.003,0.052,-4.761,-0.610,0.732
-0.294,1.003,0.059,-6.470,-2.075,1.404
-0.297,0.998,0.080,-8.179,-3.418,2.380
-0.302,0.981,0.102,-9.277,-4.211,3.357
-0.307,0.956,0.123,-9.521,-4.883,4.456
-0.315,0.937,0.148,-8.606,-5.249,4.883
-0.317,0.927,0.151,-5.615,-4.700,4.822
-0.322,0.929,0.133,-2.686,-3.906,4.639
-0.328,0.928,0.101,-0.183,-3.418,5.005
-0.296,0.930,0.061,1.526,-3.174,5.005
-0.293,0.934,0.057,2.319,-2.563,4.211
-0.282,0.928,0.055,1.343,-2.502,3.357
-0.287,0.929,0.060,-0.671,-2.380,2.258
-0.296,0.929,0.067,-1.831,-2.258,1.465
-0.308,0.925,0.078,-2.441,-1.587,1.099
-0.315,0.920,0.086,-2.136,-0.916,0.854
-0.320,0.921,0.093,-1.465,-0.305,0.671
-0.321,0.922,0.101,-0.793,-0.488,0.427
-0.321,0.928,0.097,0.732,-0.610,0.366
-0.318,0.929,0.081,2.563,-1.404,0.366
-0.307,0.932,0.064,3.540,-2.075,0.122
-0.303,0.924,0.052,2.991,-2.686,-0.610
-0.300,0.942,0.047,0.610,-3.784,-1.160
-0.312,0.922,0.057,-1.343,-4.028,-3.052
-0.327,0.955,0.059,-1.099,-3.174,-3.784
-0.324,0.962,0.065,-0.488,-1.709,-2.380
-0.326,0.963,0.087,1.160,-0.610,-0.671
-0.328,0.963,0.095,2.014,0.183,0.244
-0.328,0.960,0.097,3.235,-0.488,0.793
-0.329,0.960,0.075,2.991,-1.465,0.549
-0.326,0.964,0.061,1.770,-3.113,-0.122
-0.318,0.966,0.042,-0.610,-4.272,-0.610
-0.313,0.964,0.047,-1.160,-3.967,-0.610
-0.313,0.956,0.060,-0.977,-2.991,-0.122
-0.317,0.943,0.074,-0.183,-2.197,0.671
-0.315,0.932,0.081,0.793,-1.038,1.221
-0.320,0.925,0.084,1.770,-0.488,1.160
-0.320,0.931,0.076,2.258,-0.549,0.793
-0.317,0.944,0.065,2.319,-1.160,0.000
-0.318,0.959,0.065,1.831,-1.709,-0.671
-0.319,0.969,0.062,0.671,-2.197,-0.916
-0.319,0.969,0.066,-0.488,-2.930,-0.610
-0.316,0.964,0.065,-0.488,-3.235,0.000
-0.313,0.953,0.074,-0.488,-3.052,0.549
-0.311,0.939,0.080,-0.305,-2.563,1.221
-0.311,0.929,0.080,-0.122,-2.136,1.465
-0.311,0.929,0.077,-0.061,-2.014,1.343
-0.310,0.932,0.068,0.061,-1.648,0.854
-0.311,0.944,0.065,0.671,-2.014,0.061
-0.312,0.953,0.067,0.488,-2.197,-0.732
-0.316,0.965,0.071,0.061,-2.502,-1.099
-0.317,0.967,0.072,-0.366,-2.808,-1.343
-0.321,0.968,0.076,-0.977,-2.869,-1.221
-0.323,0.959,0.087,-0.793,-2.441,-0.122
-0.322,0.945,0.087,1.221,-2.380,0.854
-0.319,0.942,0.068,2.808,-2.380,0.977
-0.315,0.941,0.054,2.686,-2.563,0.916
-0.313,0.937,0.047,1.892,-2.502,0.793
-0.317,0.945,0.053,0.549,-2.319,0.000
-0.313,0.948,0.053,-0.427,-1.831,-0.366
-0.319,0.951,0.074,-0.977,-1.221,-0.732
-0.321,0.952,0.078,-0.244,-0.488,-0.793
-0.321,0.957,0.081,0.549,-0.183,-0.488
-0.321,0.951,0.075,0.977,-0.610,0.122
-0.320,0.948,0.064,1.099,-1.343,0.427
-0.317,0.952,0.051,1.770,-2.197,0.732
-0.312,0.953,0.049,1.526,-2.869,0.916
-0.311,0.958,0.055,0.610,-2.930,0.793
-0.311,0.961,0.062,-0.061,-2.625,0.427
-0.316,0.957,0.079,-0.366,-2.563,0.610
-0.304,0.949,0.087,-0.427,-2.197,0.977
-0.324,0.932,0.105,0.488,-2.136,0.916
-0.318,0.933,0.094,2.136,-1.831,1.343
-0.320,0.926,0.088,2.014,-2.014,1.587
-0.322,0.936,0.087,2.136,-1.831,1.282
-0.320,0.947,0.076,2.930,-1.465,0.610
-0.315,0.964,0.060,2.686,-1.709,0.061
-0.316,0.976,0.052,1.099,-2.197,-0.366
-0.316,0.981,0.055,-0.366,-2.625,0.061
-0.316,0.978,0.059,-0.305,-2.319,1.465
-0.321,0.943,0.073,0.549,-2.136,2.075
-0.323,0.925,0.077,0.793,-1.831,2.258
-0.323,0.920,0.081,1.770,-1.099,1.648
-0.322,0.919,0.079,2.991,-0.793,1.038
-0.322,0.928,0.071,2.930,-0.610,0.183
-0.317,0.946,0.067,2.380,-1.038,-0.183
-0.314,0.963,0.065,1.709,-1.465,-0.244
-0.310,0.971,0.067,1.099,-2.014,-0.244

-1.125,0.844,4.000,-117.554,-97.229,-5.676
0.880,1.354,0.984,-58.167,6.531,37.537
0.379,1.141,0.149,73.181,-67.749,27.161
-0.836,0.754,-0.059,85.205,-159.241,-21.973
-1.278,0.631,0.115,51.086,-115.479,-32.288
-0.545,0.864,-0.376,12.024,-34.973,-8.240
-0.251,0.907,-0.129,2.625,0.854,7.324
-0.091,0.802,0.147,16.418,27.710,11.963
-0.032,0.716,0.243,27.832,34.180,9.216
-0.153,0.734,0.226,23.437,19.775,4.639
-0.143,0.775,0.083,20.386,9.338,4.456
-0.144,0.802,-0.121,21.118,7.141,-14.099
-0.219,0.838,-0.151,15.076,6.714,-10.376
-0.294,0.963,-0.001,-5.493,14.038,-14.526
-0.301,1.027,0.100,-16.418,14.282,-15.869
-0.292,1.050,0.109,-14.526,9.949,-15.747
-0.295,1.046,0.084,-4.150,3.174,-13.916
-0.270,1.072,0.053,4.333,-4.089,-11.414
-0.262,1.068,0.012,9.521,-8.362,-8.728
-0.260,1.052,-0.008,10.315,-10.864,-5.676
-0.257,1.027,-0.002,7.812,-11.536,-3.357
-0.263,0.998,0.031,4.639,-9.644,-1.343
-0.278,0.977,0.066,1.221,-7.202,-0.427
-0.297,0.959,0.105,-1.526,-5.920,0.061
-0.316,0.951,0.122,-3.174,-5.371,0.488
-0.332,0.950,0.128,-3.784,-4.822,0.610
-0.344,0.951,0.120,-3.174,-4.333,0.610
-0.351,0.951,0.119,-2.075,-3.967,0.488
-0.339,0.961,0.109,-0.305,-3.601,0.244
-0.333,0.973,0.089,1.831,-3.296,0.122
-0.327,0.987,0.080,3.174,-2.686,-0.244
-0.317,0.996,0.058,4.517,-1.831,-1.160
-0.300,1.006,0.052,2.441,-1.221,-0.793
-0.295,1.001,0.059,-0.183,-1.282,-0.244
-0.291,0.996,0.070,-2.441,-1.526,0.671
-0.294,0.984,0.086,-4.089,-1.953,1.709
-0.288,0.968,0.095,-4.578,-2.258,2.502
-0.290,0.959,0.120,-4.761,-2.686,3.113
-0.289,0.952,0.126,-4.028,-3.174,3.418
-0.281,0.946,0.123,-2.075,-3.845,3.601
-0.280,0.949,0.109,-0.183,-4.517,3.906
-0.272,0.939,0.088,0.366,-5.005,3.723
-0.271,0.932,0.078,-0.183,-5.371,2.869
-0.275,0.924,0.073,-1.038,-4.578,2.014
-0.270,0.920,0.074,-2.075,-3.723,1.221
-0.275,0.921,0.085,-3.113,-2.808,0.244
-0.279,0.921,0.095,-3.357,-1.953,-0.549
-0.289,0.923,0.108,-2.808,-0.916,-0.916
-0.291,0.930,0.116,-1.404,-0.183,-0.977
-0.293,0.936,0.114,0.183,-0.427,-0.671
-0.296,0.935,0.106,0.366,-1.343,-0.427
-0.292,0.937,0.099,-0.183,-2.258,-0.732
-0.289,0.949,0.082,-0.488,-3.357,-1.526
-0.291,0.956,0.071,-0.854,-4.272,-2.258
-0.286,0.969,0.063,-1.343,-4.639,-2.319
-0.283,0.972,0.065,-0.793,-4.517,-1.465
-0.279,0.969,0.069,1.526,-3.418,-0.916
-0.282,0.965,0.076,1.709,-2.930,-0.671
-0.285,0.965,0.084,1.404,-2.502,-0.549
-0.290,0.963,0.088,1.038,-2.319,-0.488
-0.293,0.966,0.086,0.183,-2.197,-0.732
-0.296,0.973,0.081,-0.366,-2.258,-0.671
-0.300,0.976,0.072,-0.366,-2.441,-0.427
-0.299,0.976,0.073,-0.366,-2.441,0.183
-0.295,0.972,0.078,0.000,-2.380,0.977
-0.297,0.962,0.088,0.122,-2.686,1.160
-0.298,0.952,0.090,0.610,-2.808,1.282
-0.303,0.942,0.088,0.916,-2.625,1.465
-0.301,0.934,0.089,0.549,-2.319,1.526
-0.300,0.933,0.089,0.671,-1.831,1.099
-0.296,0.942,0.082,1.343,-1.587,0.793
-0.291,0.951,0.071,1.770,-1.709,0.793
-0.283,0.957,0.061,1.831,-2.136,0.793
-0.279,0.962,0.053,1.404,-2.319,0.549
-0.279,0.957,0.059,0.549,-2.319,0.488
-0.283,0.958,0.069,-0.366,-2.502,0.427
-0.286,0.953,0.078,-0.488,-2.869,0.488
-0.290,0.946,0.088,-0.488,-2.930,0.427
-0.296,0.941,0.097,-0.183,-2.563,0.427
-0.301,0.936,0.103,0.427,-2.014,0.549
-0.301,0.938,0.099,0.977,-1.709,-0.061
-0.292,0.964,0.070,1.343,-1.709,-0.427
-0.288,0.973,0.059,1.160,-1.953,-0.549
-0.283,0.976,0.060,0.854,-2.197,-0.244
-0.282,0.974,0.060,0.854,-2.441,0.122
-0.288,0.965,0.061,0.793,-2.502,0.427
-0.289,0.948,0.072,0.732,-2.502,0.732
-0.290,0.933,0.086,0.610,-2.502,0.793
-0.293,0.923,0.095,0.427,-2.319,0.732
-0.296,0.922,0.099,0.427,-1.953,0.366
-0.298,0.927,0.099,0.732,-1.587,-0.061
-0.299,0.941,0.094,0.610,-1.343,-0.549
-0.294,0.955,0.091,0.732,-1.038,-0.854
-0.295,0.971,0.084,1.160,-1.160,-0.977
-0.291,0.982,0.077,1.770,-1.221,-0.793
-0.287,0.981,0.077,2.258,-1.404,-0.305
-0.287,0.976,0.082,2.869,-1.526,0.061
-0.290,0.968,0.081,3.906,-1.587,0.549
-0.291,0.956,0.080,4.211,-1.587,1.160
-0.291,0.943,0.079,3.601,-1.953,1.343
-0.292,0.940,0.075,2.441,-2.014,1.221
-0.293,0.945,0.079,1.160,-2.441,0.610
-0.299,0.946,0.077,0.793,-2.686,0.061
-0.296,0.963,0.075,0.793,-2.686,-0.427
-0.292,0.971,0.069,0.732,-2.441,-0.488
-0.296,0.975,0.070,0.183,-2.502,15.320
-0.294,0.971,0.074,-0.122,-2.502,0.061
-0.295,0.950,0.092,1.160,-1.953,0.793
-0.293,0.939,0.096,1.160,-1.831,0.977
-0.294,0.934,0.101,1.343,-1.648,0.549
-0.293,0.937,0.094,2.075,-1.648,0.183
-0.290,0.945,0.079,2.441,-1.648,-0.061
-0.288,0.953,0.064,2.380,-1.709,-0.183
-0.286,0.962,0.056,1.709,-1.953,-0.244
-0.286,0.966,0.052,0.977,-2.075,-0.366
-0.288,0.965,0.058,0.427,-1.892,-0.305
-0.290,0.960,0.073,-0.122,-1.709,-0.427
-0.297,0.953,0.094,-0.366,-1.465,-0.427
-0.299,0.944,0.106,-0.671,-1.465,-0.549

-1.277,1.546,1.886,163.269,74.829,-3.113
1.335,2.052,1.183,154.846,-52.612,-17.822
-0.915,0.773,0.949,181.335,-207.397,-13.489
-1.542,0.481,0.429,112.305,-183.899,-5.798
-1.047,0.292,-0.615,39.001,-118.103,-9.338
-0.533,0.868,-0.868,37.170,-65.613,14.099
0.077,0.800,-0.368,42.175,30.334,29.724
0.153,0.663,0.132,15.564,85.876,19.043
0.013,0.713,0.356,-10.803,77.087,11.414
-0.036,0.743,0.263,-20.874,51.941,4.761
-0.133,0.775,0.038,-14.709,36.133,-3.052
-0.244,0.977,-0.168,3.052,25.696,-10.925
-0.304,1.064,-0.040,21.729,25.330,-9.521
-0.349,1.195,0.056,-3.235,32.349,1.221
-0.317,1.133,0.147,-35.461,30.151,13.489
-0.294,1.058,0.142,-27.039,19.531,16.663
-0.291,1.001,0.108,0.488,13.916,14.954
-0.299,0.888,0.111,15.015,13.245,12.634
-0.210,0.934,0.096,8.118,7.324,7.812
-0.179,0.879,0.117,-0.427,-0.183,4.211
-0.154,0.905,0.100,-5.005,-11.658,-4.272
-0.174,0.968,0.039,-6.775,-15.625,-5.127
-0.173,0.999,0.006,-6.165,-16.479,-4.272
-0.190,0.979,0.008,-4.211,-17.090,-1.831
-0.213,0.949,0.019,-4.028,-17.029,0.793
-0.244,0.921,0.044,-4.028,-17.639,2.075
-0.270,0.907,0.069,-2.930,-16.968,1.526
-0.316,0.887,0.102,-0.305,-14.282,-0.427
-0.349,0.891,0.119,2.747,-9.705,-2.319
-0.365,0.902,0.138,4.028,-5.981,-3.113
-0.363,0.917,0.143,3.906,-3.845,-3.540
-0.360,0.943,0.151,2.014,-2.502,-3.723
-0.351,0.975,0.152,-0.732,-2.563,-3.540
-0.339,1.001,0.145,-2.563,-2.930,-2.808
-0.320,1.011,0.127,-2.441,-3.540,0.305
-0.286,0.999,0.102,-0.977,-3.296,1.465
-0.278,0.981,0.099,-0.366,-3.235,2.197
-0.274,0.963,0.115,-1.343,-2.930,1.892
-0.275,0.953,0.130,-1.465,-2.747,1.526
-0.281,0.950,0.152,-0.427,-2.625,1.343
-0.287,0.950,0.165,0.671,-2.563,1.221
-0.289,0.948,0.172,0.549,-2.319,1.343
-0.289,0.945,0.170,0.000,-2.991,1.282
-0.289,0.945,0.153,-0.183,-3.784,1.038
-0.287,0.950,0.132,0.000,-4.456,0.793
-0.286,0.948,0.120,0.488,-4.883,0.488
-0.290,0.949,0.107,1.038,-5.005,0.061
-0.292,0.949,0.109,1.709,-4.517,-0.244
-0.296,0.945,0.112,3.357,-3.601,-0.061
-0.297,0.931,0.111,4.578,-2.014,0.183
-0.298,0.925,0.114,4.456,-0.916,0.305
-0.296,0.922,0.119,3.723,-0.366,0.244
-0.295,0.927,0.125,3.296,-0.366,-0.244
-0.291,0.938,0.132,2.991,-0.854,-0.793
-0.285,0.954,0.124,2.747,-1.831,-0.732
-0.277,0.969,0.094,2.563,-4.028,-0.488
-0.278,0.959,0.088,2.380,-4.272,0.061
-0.282,0.947,0.093,1.831,-4.028,0.366
-0.279,0.937,0.108,0.977,-3.052,0.305
-0.279,0.929,0.128,0.000,-2.075,0.061
-0.284,0.926,0.149,-0.671,-1.343,-0.366
-0.289,0.930,0.155,0.244,-1.099,-0.732
-0.290,0.939,0.148,1.953,-2.075,-0.671
-0.287,0.947,0.128,2.686,-3.113,-0.427
-0.286,0.957,0.110,2.319,-3.662,-0.793
-0.283,0.966,0.096,1.709,-3.967,-1.160
-0.285,0.970,0.090,0.916,-3.601,-1.648
-0.287,0.969,0.093,0.305,-2.991,-1.892
-0.289,0.960,0.107,0.305,-2.197,-1.648
-0.293,0.954,0.130,0.305,-1.648,-1.648
-0.294,0.947,0.144,0.366,-1.770,-1.221
-0.298,0.945,0.146,0.793,-2.258,-0.549
-0.302,0.945,0.137,1.038,-2.869,-0.122
-0.301,0.950,0.126,0.916,-3.235,0.122
-0.298,0.956,0.114,0.427,-3.296,0.366
-0.293,0.964,0.101,-0.244,-3.662,0.061
-0.286,0.971,0.091,-0.671,-3.723,-0.671
-0.284,0.975,0.088,-0.916,-3.357,-0.610
-0.289,0.968,0.096,-0.793,-2.991,-0.549
-0.292,0.959,0.108,-0.366,-2.380,-0.061
-0.295,0.949,0.119,0.000,-1.526,0.122
-0.299,0.945,0.129,0.122,-0.916,0.427
-0.298,0.946,0.134,0.610,-0.732,0.549
-0.295,0.951,0.132,1.038,-1.221,0.854
-0.293,0.956,0.124,1.343,-2.014,1.038
-0.287,0.957,0.109,1.404,-2.686,1.221
-0.282,0.958,0.097,1.038,-3.296,1.099
-0.280,0.953,0.091,0.061,-3.479,0.610
-0.281,0.947,0.104,-0.977,-3.235,0.061
-0.284,0.943,0.118,-1.099,-2.808,-0.061
-0.287,0.939,0.132,-1.221,-2.380,-0.305
-0.291,0.939,0.142,-0.977,-1.953,-0.366
-0.294,0.938,0.144,-0.366,-1.831,-0.122
-0.291,0.943,0.143,0.061,-1.831,0.244
-0.289,0.948,0.135,0.183,-1.953,0.488
-0.284,0.949,0.124,0.305,-2.380,0.488
-0.281,0.951,0.106,0.122,-2.930,0.427
-0.282,0.948,0.095,-0.122,-3.174,0.366
-0.284,0.944,0.098,-0.366,-2.625,0.000
-0.287,0.943,0.111,-0.366,-2.136,-0.732
-0.292,0.944,0.126,-0.122,-1.404,-1.282
-0.299,0.945,0.135,0.488,-1.465,-0.793
-0.296,0.960,0.122,2.075,-2.014,-0.549
-0.294,0.967,0.108,2.136,-2.441,-0.122
-0.291,0.975,0.092,1.770,-2.869,0.183
-0.285,0.971,0.083,0.977,-2.808,0.305
-0.282,0.964,0.083,0.793,-2.563,0.366
-0.283,0.954,0.092,0.183,-2.014,0.061
-0.287,0.949,0.105,0.061,-1.526,-0.122
-0.291,0.942,0.120,0.000,-1.282,-0.366
-0.297,0.938,0.127,-0.122,-1.038,-0.244
-0.300,0.937,0.131,0.488,-0.916,0.000
-0.298,0.944,0.126,1.709,-1.282,0.122
-0.298,0.951,0.116,1.892,-1.648,0.061
-0.291,0.959,0.101,1.587,-2.197,0.000
-0.286,0.964,0.088,0.977,-2.380,-0.244
-0.283,0.968,0.082,0.793,-2.197,-0.427
-0.282,0.963,0.091,0.183,-1.709,-0.488
-0.282,0.954,0.104,-0.305,-1.221,-0.427

-0.675,-1.106,4.000,86.121,134.583,24.963
0.053,1.121,2.011,-52.856,87.402,28.198
-0.256,0.858,1.609,74.890,-128.418,15.564
-0.765,0.764,0.535,56.763,-163.025,-10.254
-0.825,-0.020,0.039,69.214,-113.892,-26.123
-0.843,0.359,-0.738,58.228,-102.478,-13.489
-0.097,0.828,-0.679,-5.249,-42.114,1.160
0.092,0.778,-0.198,-43.640,10.620,0.244
-0.026,0.722,0.125,-46.387,23.682,-6.714
-0.135,0.810,0.237,-28.198,13.000,-9.277
-0.129,0.847,0.127,0.305,14.832,-6.470
-0.237,0.889,-0.082,21.118,35.583,-7.019
-0.305,0.914,-0.105,33.325,49.438,-8.423
-0.343,1.059,0.316,9.521,49.683,-7.263
-0.276,1.032,0.325,-11.536,27.588,-4.211
-0.306,0.997,0.246,-6.348,3.235,-1.221
-0.254,0.963,0.164,10.010,-11.230,-2.441
-0.260,0.991,0.101,13.916,-16.052,-4.150
-0.246,0.987,0.084,10.437,-17.273,-6.287
-0.253,1.009,0.068,6.348,-18.127,-7.446
-0.243,0.975,0.061,4.028,-16.541,-5.798
-0.275,0.981,0.086,-0.549,-12.695,-4.639
-0.292,0.971,0.111,-2.319,-7.996,-3.662
-0.321,0.969,0.160,-4.028,-5.127,-2.258
-0.361,0.960,0.165,-5.676,-4.395,-0.488
-0.386,0.954,0.157,-5.310,-4.333,0.427
-0.401,0.957,0.141,-1.831,-4.028,0.854
-0.407,0.946,0.134,2.991,-2.014,1.221
-0.398,0.942,0.134,4.517,0.916,0.488
-0.380,0.943,0.147,2.747,3.235,-1.343
-0.360,0.945,0.162,-0.244,3.845,-2.686
-0.342,0.949,0.179,-2.991,2.808,-2.747
-0.328,0.993,0.176,-6.287,1.160,-2.808
-0.324,0.983,0.163,-6.104,-1.404,-2.747
-0.309,0.986,0.146,-4.211,-4.028,0.061
-0.300,0.995,0.103,-0.977,-5.615,2.014
-0.296,0.987,0.100,-0.854,-4.089,3.235
-0.293,0.962,0.110,-0.122,-2.441,4.395
-0.298,0.940,0.123,0.061,-0.549,5.066
-0.304,0.919,0.140,-0.366,0.244,5.066
-0.309,0.905,0.145,-0.427,0.305,4.395
-0.311,0.896,0.147,0.061,-0.427,3.540
-0.310,0.901,0.148,1.587,-1.526,2.197
-0.302,0.912,0.141,2.808,-3.174,1.038
-0.297,0.931,0.126,2.991,-4.272,0.000
-0.298,0.940,0.108,2.747,-4.944,-0.427
-0.296,0.950,0.101,2.502,-4.700,-0.549
-0.296,0.948,0.103,2.441,-3.967,-0.183
-0.294,0.943,0.115,2.197,-2.930,0.671
-0.296,0.934,0.128,1.831,-1.404,1.587
-0.299,0.914,0.146,1.892,-0.244,2.075
-0.303,0.897,0.160,2.563,0.732,2.625
-0.309,0.891,0.163,3.296,0.244,2.136
-0.313,0.890,0.146,3.601,-1.221,1.221
-0.315,0.897,0.123,2.808,-2.625,-0.061
-0.315,0.913,0.107,1.282,-3.906,-1.465
-0.311,0.934,0.094,-0.061,-4.456,-2.930
-0.312,0.958,0.090,-0.916,-4.456,-3.784
-0.310,0.973,0.092,-1.343,-3.784,-3.967
-0.308,0.981,0.103,-0.488,-2.747,-2.197
-0.307,0.975,0.128,2.930,-1.526,-0.793
-0.306,0.958,0.130,3.357,-1.587,0.427
-0.305,0.948,0.130,3.113,-2.258,0.793
-0.311,0.948,0.128,2.686,-2.930,0.427
-0.315,0.952,0.121,1.709,-3.235,-0.244
-0.320,0.957,0.118,0.061,-3.418,-1.038
-0.325,0.961,0.121,-1.648,-3.235,-1.343
-0.327,0.956,0.135,-2.747,-2.869,-1.160
-0.327,0.947,0.149,-2.991,-2.869,-0.366
-0.327,0.940,0.155,-1.770,-2.930,0.366
-0.325,0.935,0.152,0.305,-2.930,0.977
-0.322,0.929,0.145,1.892,-2.747,1.221
-0.314,0.927,0.136,3.418,-2.991,1.343
-0.308,0.937,0.124,4.333,-2.869,0.671
-0.307,0.951,0.117,4.028,-2.869,-0.305
-0.305,0.962,0.119,2.441,-2.808,-1.038
-0.305,0.971,0.122,0.610,-2.563,-1.160
-0.311,0.973,0.125,-0.549,-2.258,-0.732
-0.316,0.968,0.125,-0.671,-1.953,0.427
-0.319,0.951,0.130,-0.244,-1.160,1.709
-0.319,0.931,0.140,0.122,-0.916,2.441
-0.317,0.911,0.143,1.099,-1.038,2.563
-0.311,0.901,0.137,1.892,-1.404,1.831
-0.306,0.910,0.127,2.380,-2.075,-0.732
-0.302,0.945,0.114,1.038,-2.930,-1.709
-0.298,0.958,0.111,0.061,-3.235,-1.709
-0.299,0.965,0.107,-0.061,-2.747,-1.709
-0.302,0.969,0.111,-0.244,-1.831,-1.282
-0.302,0.960,0.124,-1.282,-0.732,-0.427
-0.309,0.950,0.141,-1.709,-0.305,0.305
-0.312,0.935,0.147,-0.549,-0.244,0.671
-0.314,0.927,0.143,0.427,-0.977,0.793
-0.313,0.922,0.131,0.793,-2.197,0.610
-0.314,0.924,0.116,0.366,-3.418,-0.061
-0.312,0.933,0.105,0.549,-4.028,-1.160
-0.310,0.944,0.099,1.526,-3.723,-2.014
-0.308,0.961,0.098,1.770,-3.235,-2.319
-0.308,0.967,0.102,1.099,-2.136,-2.197
-0.309,0.968,0.117,0.061,-1.465,-1.587
-0.310,0.967,0.135,-0.488,-0.610,-0.671
-0.313,0.960,0.149,0.305,-0.244,0.549
-0.316,0.947,0.156,0.732,-0.488,1.587
-0.314,0.932,0.149,0.427,-1.099,2.014
-0.315,0.920,0.136,0.183,-1.953,0.977
-0.314,0.931,0.103,0.549,-3.052,-0.061
-0.313,0.942,0.095,-0.488,-2.747,-0.916
-0.314,0.949,0.099,-1.404,-2.075,-1.526
-0.313,0.957,0.113,-1.282,-1.038,-1.343
-0.314,0.958,0.126,-0.122,-0.061,-0.916
-0.315,0.958,0.135,1.526,0.305,0.000
-0.318,0.950,0.137,2.686,0.244,1.099
-0.317,0.944,0.130,3.418,-0.244,1.587
-0.314,0.943,0.124,3.845,-0.854,1.587
-0.313,0.949,0.119,3.357,-1.404,1.221
-0.310,0.955,0.113,2.319,-1.831,0.427
-0.307,0.964,0.109,1.770,-1.770,0.000
-0.309,0.970,0.107,0.793,-1.343,-0.061
-0.311,0.968,0.113,0.183,-0.671,0.549
-0.308,0.957,0.125,-0.366,-0.061,1.343

-0.136,-3.543,3.977,264.954,97.229,15.198
0.125,1.026,2.014,25.085,-93.262,-14.221
-0.716,1.198,0.698,-70.496,-200.928,-11.047
-1.084,-0.233,0.454,16.785,-178.467,-8.301
-0.706,0.177,-0.362,33.447,-113.098,-17.883
-0.519,0.923,-0.790,30.029,-68.054,-17.578
-0.186,0.662,-0.275,47.058,-9.033,-6.531
-0.007,0.712,0.003,17.578,36.621,-1.831
-0.076,0.837,0.147,-5.859,43.457,-7.080
-0.177,0.879,0.105,8.179,46.753,-8.545
-0.245,0.894,0.089,24.475,45.715,-10.071
-0.276,0.879,0.168,25.574,40.527,-11.292
-0.317,0.931,0.217,14.099,27.588,-12.268
-0.306,0.956,0.194,7.141,10.925,-12.817
-0.349,0.991,0.164,11.902,-1.831,-12.939
-0.340,1.006,0.140,17.944,-12.817,-12.817
-0.301,1.016,0.153,13.000,-13.428,-13.062
-0.308,1.023,0.150,6.897,-13.184,-13.367
-0.318,1.018,0.126,2.686,-12.329,-12.817
-0.354,1.018,0.126,-4.150,-9.521,-10.803
-0.364,1.013,0.139,-9.399,-5.798,-7.568
-0.392,1.007,0.189,-9.644,-3.174,-4.333
-0.404,1.002,0.203,-6.348,-2.563,-1.343
-0.421,1.003,0.199,-3.906,-1.770,2.197
-0.423,0.990,0.190,-1.587,-1.221,4.822
-0.418,0.974,0.182,0.488,0.366,5.554
-0.405,0.962,0.169,1.953,2.380,5.188
-0.390,0.960,0.170,2.502,3.906,4.211
-0.372,0.965,0.168,1.221,4.578,3.357
-0.363,0.965,0.192,-2.686,4.822,2.258
-0.346,0.973,0.208,-4.150,2.258,1.831
-0.333,0.983,0.210,-4.028,-0.610,2.502
-0.324,0.989,0.204,-3.540,-2.380,3.662
-0.325,0.979,0.193,-2.747,-3.601,5.127
-0.323,0.965,0.184,-2.136,-4.395,6.897
-0.322,0.940,0.179,-2.991,-4.578,8.057
-0.321,0.916,0.168,-2.991,-4.456,8.423
-0.318,0.892,0.161,-2.991,-4.211,8.057
-0.321,0.874,0.159,-3.113,-3.113,7.202
-0.321,0.868,0.156,-1.953,-2.136,4.517
-0.328,0.852,0.157,-0.061,-0.183,3.052
-0.324,0.863,0.166,0.061,0.549,1.770
-0.323,0.878,0.173,1.404,0.610,0.732
-0.321,0.897,0.173,2.197,-0.122,0.061
-0.320,0.907,0.163,1.282,-1.099,-0.305
-0.323,0.917,0.150,0.366,-1.648,-0.610
-0.328,0.927,0.141,-0.183,-1.953,-0.916
-0.333,0.930,0.140,-1.160,-1.770,-1.038
-0.336,0.928,0.146,-1.465,-1.160,-0.854
-0.340,0.925,0.164,-1.404,-0.427,-0.488
-0.338,0.917,0.179,-0.366,0.183,0.000
-0.333,0.916,0.183,1.648,-0.061,0.366
-0.328,0.919,0.178,2.930,-1.099,0.488
-0.327,0.924,0.169,3.479,-2.319,0.427
-0.324,0.934,0.156,3.052,-3.601,0.122
-0.327,0.942,0.144,2.197,-4.395,-0.183
-0.332,0.942,0.135,1.709,-4.456,-0.427
-0.339,0.935,0.130,0.916,-3.845,-0.793
-0.344,0.930,0.141,0.061,-2.441,-1.099
-0.354,0.926,0.164,-0.732,-0.610,-1.343
-0.359,0.917,0.186,-1.404,2.014,-1.099
-0.359,0.926,0.208,-1.587,1.892,-0.671
-0.353,0.937,0.202,-0.061,0.854,-0.122
-0.348,0.945,0.187,1.099,-0.793,0.305
-0.338,0.948,0.165,1.770,-2.075,1.038
-0.335,0.940,0.149,2.014,-2.869,1.709
-0.330,0.945,0.132,0.854,-3.235,1.709
-0.332,0.938,0.129,-0.061,-2.808,1.465
-0.335,0.933,0.137,-0.244,-1.831,1.465
-0.340,0.919,0.154,-0.427,-0.671,1.587
-0.341,0.910,0.171,-1.038,0.000,1.770
-0.341,0.907,0.183,-1.282,0.244,1.526
-0.338,0.907,0.190,-0.854,0.061,1.099
-0.335,0.912,0.187,-0.366,-0.366,0.854
-0.329,0.924,0.179,0.305,-0.977,0.305
-0.330,0.927,0.167,1.343,-1.587,0.061
-0.334,0.929,0.152,1.221,-1.770,-0.244
-0.336,0.926,0.144,1.038,-1.648,-0.366
-0.341,0.924,0.144,0.549,-1.160,-0.366
-0.344,0.925,0.150,0.000,-0.732,-0.427
-0.347,0.930,0.164,-0.549,-0.244,-0.549
-0.352,0.938,0.177,-0.488,-0.122,-0.183
-0.351,0.941,0.185,-0.793,-0.244,0.488
-0.348,0.941,0.181,0.000,-0.793,1.282
-0.346,0.940,0.175,0.610,-1.404,1.709
-0.340,0.934,0.162,0.610,-1.526,2.014
-0.334,0.930,0.156,0.305,-1.587,1.770
-0.332,0.929,0.149,0.000,-1.282,1.282
-0.328,0.925,0.148,-0.549,-0.916,0.671
-0.331,0.927,0.159,-0.671,-0.793,0.183
-0.336,0.924,0.168,-0.244,-0.488,-0.122
-0.339,0.921,0.172,0.183,-0.427,0.000
-0.343,0.921,0.171,0.610,-0.671,0.122
-0.344,0.931,0.172,0.122,-0.793,-0.183
-0.340,0.936,0.166,0.122,-1.221,-0.244
-0.337,0.950,0.160,0.183,-1.526,-0.366
-0.337,0.954,0.153,0.305,-1.404,-0.366
-0.338,0.944,0.146,0.732,-1.221,0.244
-0.336,0.929,0.146,1.160,-1.038,0.916
-0.337,0.916,0.153,1.221,-0.549,1.038
-0.340,0.904,0.168,0.488,-0.061,0.854
-0.341,0.906,0.183,-0.183,0.183,0.732
-0.346,0.912,0.187,-0.427,0.000,0.488
-0.345,0.924,0.180,-0.305,-0.793,0.366
-0.341,0.935,0.168,0.000,-1.526,0.427
-0.338,0.939,0.151,0.061,-2.136,0.366
-0.331,0.945,0.141,0.366,-2.441,0.610
-0.328,0.942,0.136,0.488,-2.441,0.610
-0.331,0.937,0.142,0.244,-1.953,0.488
-0.336,0.924,0.155,-0.244,-1.221,0.244
-0.344,0.914,0.168,-0.488,-0.427,0.183
-0.346,0.909,0.178,-0.183,-0.183,0.366
-0.347,0.907,0.184,0.488,-0.366,0.366
-0.343,0.922,0.182,0.793,-1.709,-0.305
-0.341,0.930,0.170,0.793,-2.258,-0.610
-0.336,0.938,0.155,0.977,-2.747,-0.732
-0.333,0.939,0.146,1.160,-2.502,-0.610
-0.333,0.933,0.141,1.282,-2.197,-0.610
-0.336,0.923,0.145,0.610,-1.709,-0.610

-0.035,0.716,1.605,86.304,91.125,27.588
-0.025,-3.408,3.759,267.944,98.022,20.874
-1.556,1.017,2.684,-42.664,-68.909,-7.812
-0.188,0.795,1.067,-195.129,-127.197,6.104
-0.635,-0.628,0.822,-47.302,-111.938,-14.404
-0.981,0.811,-0.323,11.780,-109.741,-25.269
-0.146,1.350,-0.689,52.002,-44.250,-5.188
0.025,0.787,0.025,23.804,-14.526,7.324
-0.116,0.934,-0.059,-54.138,-9.033,2.747
-0.073,0.958,-0.022,-45.532,-17.517,2.686
-0.182,1.026,-0.108,4.456,-4.456,1.221
-0.303,1.104,-0.258,38.330,21.729,0.366
-0.337,1.087,-0.183,51.147,40.283,5.737
-0.345,1.048,0.035,48.401,47.058,10.803
-0.328,1.000,0.254,45.410,48.767,11.963
-0.299,0.982,0.403,45.166,39.917,12.024
-0.300,0.936,0.440,46.570,23.010,10.193
-0.306,0.884,0.408,44.250,5.005,6.836
-0.305,0.854,0.361,34.302,-8.606,3.479
-0.310,0.834,0.300,19.592,-18.188,0.061
-0.323,0.813,0.228,7.812,-24.292,-1.709
-0.340,0.808,0.106,-6.165,-23.132,-2.991
-0.338,0.853,0.090,-10.193,-19.104,-3.235
-0.340,0.876,0.103,-12.207,-13.367,-3.540
-0.370,0.894,0.130,-11.353,-6.714,-3.357
-0.399,0.925,0.147,-8.423,-1.648,-3.784
-0.417,0.948,0.163,-4.761,1.587,-3.662
-0.418,0.954,0.174,-2.930,4.211,-3.235
-0.411,0.956,0.193,-1.831,4.700,-2.991
-0.393,0.959,0.213,-1.892,3.540,-3.174
-0.376,0.958,0.228,-2.563,1.038,-3.662
-0.360,0.958,0.220,-3.662,-2.319,-4.089
-0.341,0.975,0.207,-3.906,-4.944,-4.272
-0.338,0.976,0.182,-3.052,-6.470,-4.272
-0.332,0.978,0.161,-1.404,-7.019,-3.235
-0.324,0.973,0.141,0.793,-6.592,-1.038
-0.317,0.962,0.127,2.319,-5.127,0.916
-0.316,0.947,0.122,2.686,-1.709,2.686
-0.324,0.919,0.131,1.404,-0.244,2.563
-0.334,0.911,0.146,-0.427,0.610,2.014
-0.342,0.914,0.156,-1.587,0.671,1.343
-0.351,0.909,0.173,-2.014,0.183,0.549
-0.357,0.910,0.187,-3.113,-0.427,0.427
-0.357,0.911,0.190,-3.174,-1.160,0.549
-0.358,0.909,0.183,-2.014,-2.075,0.610
-0.356,0.911,0.167,-0.793,-2.502,0.671
-0.354,0.911,0.157,-0.366,-2.747,0.488
-0.348,0.910,0.156,-0.977,-2.258,0.366
-0.340,0.908,0.166,-0.610,-1.404,0.061
-0.332,0.913,0.177,-0.366,-0.854,-0.122
-0.331,0.913,0.181,0.122,-0.671,-0.305
-0.335,0.913,0.182,-0.061,-0.854,-0.488
-0.333,0.905,0.180,-0.916,-1.343,-0.610
-0.336,0.910,0.182,-1.465,-2.014,-0.549
-0.342,0.911,0.183,-1.953,-2.319,-1.221
-0.346,0.917,0.184,-2.869,-2.625,-1.770
-0.346,0.927,0.185,-2.747,-2.747,-1.892
-0.349,0.935,0.183,-2.380,-2.563,-1.892
-0.354,0.940,0.180,-2.014,-2.808,-1.221
-0.356,0.939,0.174,-0.977,-2.625,-0.488
-0.354,0.934,0.167,0.549,-2.502,0.244
-0.353,0.928,0.164,1.343,-2.380,0.854
-0.350,0.922,0.168,0.854,-2.319,0.916
-0.349,0.921,0.171,0.122,-2.136,0.488
-0.346,0.928,0.176,-0.061,-2.136,0.061
-0.348,0.934,0.174,0.061,-2.136,-0.366
-0.345,0.932,0.173,-0.732,-1.953,-0.061
-0.345,0.927,0.177,-1.099,-2.075,0.488
-0.339,0.917,0.184,-0.977,-1.770,0.916
-0.337,0.905,0.191,-1.221,-1.892,0.916
-0.345,0.896,0.175,-1.892,-2.197,0.366
-0.347,0.895,0.163,-1.648,-2.380,-0.610
-0.345,0.906,0.155,-1.099,-2.502,-1.465
-0.347,0.919,0.156,-0.488,-2.319,-2.319
-0.348,0.940,0.154,-0.366,-2.197,-2.991
-0.351,0.954,0.157,-0.610,-1.770,-3.113
-0.350,0.963,0.166,-0.732,-1.465,-2.380
-0.351,0.960,0.172,-1.038,-1.282,-1.221
-0.350,0.953,0.177,-0.854,-1.709,0.061
-0.349,0.938,0.177,-0.366,-1.831,1.160
-0.348,0.922,0.174,-0.305,-2.258,1.770
-0.346,0.912,0.166,0.183,-2.625,2.014
-0.345,0.905,0.156,0.610,-2.930,1.587
-0.342,0.902,0.149,0.183,-2.869,0.793
-0.337,0.908,0.145,-0.122,-2.991,-0.305
-0.333,0.922,0.140,0.000,-2.991,-1.038
-0.332,0.937,0.142,0.061,-2.441,-1.587
-0.331,0.949,0.145,-0.305,-1.648,-1.770
-0.334,0.952,0.154,-0.427,-0.916,-1.282
-0.336,0.945,0.163,-1.770,-0.366,0.488
-0.345,0.917,0.173,-1.892,-0.610,1.221
-0.345,0.903,0.165,-1.709,-1.160,1.343
-0.345,0.897,0.156,-1.831,-1.831,0.916
-0.341,0.897,0.150,-2.197,-2.319,-0.244
-0.340,0.906,0.146,-3.113,-2.441,-1.282
-0.340,0.920,0.148,-3.357,-2.502,-2.197
-0.342,0.935,0.148,-3.052,-2.502,-2.625
-0.344,0.943,0.154,-2.563,-2.197,-2.441
-0.342,0.944,0.162,-1.404,-1.709,-1.648
-0.343,0.940,0.175,0.244,-1.404,-0.610
-0.344,0.929,0.183,1.465,-1.221,0.366
-0.344,0.921,0.185,2.380,-1.465,0.916
-0.347,0.915,0.176,2.930,-2.014,1.099
-0.348,0.915,0.165,3.357,-2.197,0.488
-0.349,0.922,0.157,2.808,-2.258,-0.427
-0.347,0.937,0.151,1.343,-2.197,-1.404
-0.348,0.949,0.150,-0.488,-2.136,-2.075
-0.349,0.960,0.152,-1.892,-1.831,-1.587
-0.350,0.953,0.170,-2.197,-1.099,-0.366
-0.349,0.936,0.177,-1.221,-1.038,0.977
-0.348,0.916,0.174,-0.244,-1.648,1.831
-0.346,0.901,0.160,0.671,-2.258,2.319
-0.341,0.896,0.148,1.160,-2.686,1.953
-0.336,0.901,0.140,1.709,-3.174,0.854
-0.332,0.915,0.134,1.282,-3.296,-0.732
-0.333,0.934,0.132,0.427,-2.869,-2.014
-0.335,0.950,0.133,-0.061,-2.441,-2.441
-0.337,0.959,0.148,-0.061,-1.587,-1.770
-0.340,0.953,0.165,0.610,-0.427,-0.549

-1.989,-1.689,3.369,249.268,172.363,71.045
-0.330,1.366,4.000,-286.682,90.393,55.237
-0.053,-0.634,1.321,-127.258,-74.158,35.522
-0.849,-0.081,0.971,114.197,-194.580,-12.695
-0.134,1.150,-1.124,131.287,-142.761,-22.888
0.006,0.740,-1.111,83.618,-57.434,-19.348
-0.297,0.856,-0.663,-57.983,-44.861,-25.330
-0.082,0.887,-0.389,-98.694,-55.664,-12.024
-0.081,0.871,-0.236,-45.166,-41.138,-8.240
-0.246,0.980,-0.234,-2.075,-21.179,-14.526
-0.340,1.045,-0.257,11.169,27.832,-2.258
-0.285,0.967,-0.104,-14.282,38.513,3.784
-0.210,0.940,-0.005,-11.902,41.077,7.019
-0.268,1.003,0.219,-3.296,36.987,5.066
-0.245,0.951,0.361,13.123,33.447,0.366
-0.272,0.933,0.348,43.396,29.907,-2.136
-0.331,0.965,0.308,57.312,11.597,-2.930
-0.359,0.933,0.272,53.772,-4.456,-0.488
-0.344,0.851,0.265,43.518,-10.681,0.977
-0.331,0.758,0.290,39.856,-12.207,0.549
-0.371,0.723,0.313,31.311,-11.597,-0.610
-0.374,0.677,0.348,13.794,-10.193,-2.197
-0.363,0.690,0.311,-5.188,-8.301,-5.554
-0.381,0.759,0.214,-17.212,-10.315,-17.517
-0.437,0.932,0.120,-20.569,-10.315,-17.212
-0.446,0.967,0.138,-15.625,-7.263,-13.855
-0.463,0.981,0.178,-8.728,-4.822,-10.254
-0.468,0.986,0.202,-4.517,-3.235,-6.409
-0.465,0.983,0.208,-1.099,-1.343,-3.967
-0.454,0.971,0.197,3.113,1.343,-2.625
-0.435,0.953,0.193,5.676,2.441,-2.136
-0.413,0.943,0.196,5.127,2.075,-2.563
-0.396,0.947,0.191,2.319,-0.244,-3.540
-0.398,0.960,0.187,-1.282,-2.625,-4.517
-0.396,0.967,0.177,-3.662,-4.517,-4.761
-0.396,0.976,0.166,-3.967,-5.615,-4.456
-0.400,0.978,0.159,-2.014,-5.188,-1.892
-0.394,0.942,0.155,6.042,-1.587,0.244
-0.393,0.926,0.161,8.850,-0.061,1.587
-0.387,0.918,0.163,10.864,0.671,2.319
-0.384,0.922,0.168,11.292,0.183,1.892
-0.386,0.931,0.172,9.216,-0.977,1.160
-0.387,0.935,0.173,5.310,-2.075,0.793
-0.388,0.933,0.180,1.282,-2.991,1.099
-0.389,0.926,0.187,-1.587,-3.296,1.465
-0.384,0.908,0.189,-2.563,-3.052,2.136
-0.376,0.894,0.190,-1.770,-2.930,2.747
-0.373,0.886,0.177,-0.549,-2.991,2.625
-0.368,0.878,0.159,0.427,-3.540,2.686
-0.366,0.878,0.139,0.793,-4.150,2.258
-0.360,0.877,0.126,1.587,-4.333,1.282
-0.354,0.886,0.122,1.831,-3.479,-1.221
-0.355,0.904,0.142,1.892,-2.991,-2.075
-0.353,0.914,0.157,1.953,-2.258,-2.197
-0.360,0.905,0.173,2.014,-1.526,-2.075
-0.366,0.904,0.191,1.770,-0.671,-1.709
-0.366,0.894,0.196,2.014,-0.610,-0.793
-0.370,0.886,0.191,1.892,-0.854,-0.305
-0.367,0.880,0.188,0.854,-1.221,-0.366
-0.363,0.880,0.182,-0.366,-2.075,-1.221
-0.362,0.889,0.170,-2.319,-2.808,-2.380
-0.362,0.903,0.157,-3.784,-3.418,-3.479
-0.365,0.915,0.146,-4.395,-3.479,-3.967
-0.371,0.927,0.150,-4.456,-3.113,-3.845
-0.372,0.927,0.163,-3.845,-2.258,-3.296
-0.371,0.923,0.180,-2.441,-1.709,-1.221
-0.369,0.907,0.172,-0.427,-2.625,-0.854
-0.370,0.904,0.156,0.549,-3.540,-1.221
-0.372,0.912,0.140,1.099,-3.906,-2.075
-0.370,0.920,0.131,1.160,-3.845,-3.113
-0.373,0.930,0.134,1.587,-3.479,-3.723
-0.375,0.937,0.139,1.892,-2.441,-3.967
-0.379,0.938,0.155,2.258,-1.465,-3.784
-0.382,0.931,0.172,3.052,-0.183,-3.174
-0.384,0.929,0.188,3.967,0.549,-2.258
-0.387,0.923,0.199,4.272,0.793,-1.465
-0.390,0.911,0.206,4.578,0.427,-0.793
-0.388,0.910,0.203,3.662,-0.732,-0.549
-0.380,0.908,0.193,2.075,-2.380,-0.671
-0.373,0.912,0.183,0.122,-3.540,-1.282
-0.363,0.920,0.169,-1.526,-4.395,-2.014
-0.359,0.923,0.161,-2.136,-4.517,-2.747
-0.351,0.924,0.157,-1.343,-4.028,-2.258
-0.349,0.918,0.164,-0.244,-3.235,-1.709
-0.348,0.906,0.174,0.977,-2.563,-0.671
-0.342,0.892,0.171,3.540,-2.808,-0.793
-0.342,0.894,0.157,3.296,-3.540,-1.526
-0.341,0.901,0.145,1.526,-3.967,-2.747
-0.346,0.916,0.141,-1.038,-3.906,-3.967
-0.350,0.930,0.147,-2.563,-3.601,-4.395
-0.357,0.937,0.163,-2.991,-2.808,-4.456
-0.365,0.939,0.173,-2.991,-2.380,-4.150
-0.373,0.939,0.173,-2.075,-2.136,-3.662
-0.384,0.933,0.171,-0.793,-2.014,-2.991
-0.391,0.929,0.170,-0.671,-1.892,-2.441
-0.395,0.924,0.171,-0.854,-2.014,-1.953
-0.393,0.930,0.170,-0.916,-2.380,-1.953
-0.389,0.936,0.165,-0.916,-2.441,-1.831
-0.385,0.940,0.163,-1.709,-2.808,-1.831
-0.378,0.947,0.164,-3.052,-2.930,-1.526
-0.377,0.951,0.172,-3.540,-2.686,-1.221
-0.375,0.954,0.180,-3.357,-2.319,-0.793
-0.377,0.945,0.188,-3.601,-1.892,0.183
-0.379,0.934,0.192,-3.418,-1.709,1.038
-0.381,0.926,0.189,-3.235,-1.831,1.648
-0.381,0.916,0.187,-2.869,-1.831,1.648
-0.377,0.913,0.185,-2.197,-1.831,1.526
-0.374,0.916,0.177,-1.648,-2.075,0.977
-0.374,0.924,0.166,-1.587,-2.563,0.427
-0.373,0.927,0.153,-2.258,-2.808,-0.122
-0.375,0.928,0.144,-2.991,-2.563,-0.183
-0.374,0.927,0.141,-2.441,-2.197,0.000
-0.374,0.918,0.147,-2.014,-1.282,0.305
-0.374,0.907,0.155,-1.648,-0.366,0.671
-0.363,0.898,0.165,-0.732,0.549,1.160
-0.374,0.892,0.166,0.732,0.793,1.038
-0.365,0.890,0.160,2.686,-0.488,1.160
-0.365,0.897,0.153,1.709,-1.160,0.549
-0.364,0.906,0.145,0.000,-2.014,-0.366

-2.026,2.200,4.000,-43.152,-41.565,22.461
0.041,-0.221,3.663,367.676,113.647,46.509
0.547,2.706,1.249,77.759,13.367,28.687
-1.017,-0.199,1.351,-47.424,-156.677,30.029
-1.594,-0.571,1.091,-134.094,-277.283,39.001
0.660,1.099,-1.074,-86.731,-104.370,62.012
0.197,0.532,-0.164,27.771,-42.542,21.484
-0.311,0.703,-0.241,90.637,-24.353,-12.207
-0.033,0.873,-0.574,63.904,-22.583,0.427
-0.051,0.812,-0.513,14.282,-36.926,6.348
-0.217,0.857,-0.599,-5.981,-23.132,-0.183
-0.231,0.937,-0.607,10.559,2.808,-3.235
-0.260,0.985,-0.449,14.954,22.339,-4.883
-0.236,0.981,-0.266,-1.160,32.166,-5.127
-0.197,0.963,-0.135,-15.930,32.410,-4.395
-0.197,1.011,-0.036,-25.024,17.456,-7.629
-0.236,1.041,0.019,-24.475,9.766,-8.240
-0.267,1.046,0.007,-20.752,2.380,-5.798
-0.296,1.011,-0.039,-15.381,-2.014,-2.563
-0.331,0.999,0.019,-12.268,-2.136,1.160
-0.376,0.964,0.401,0.977,8.911,3.601
-0.536,0.727,0.447,46.082,37.354,6.042
-0.631,0.685,0.823,56.274,41.321,11.841
-0.405,0.560,0.820,23.193,27.466,18.005
-0.332,0.566,0.429,-2.075,-6.348,9.338
-0.358,0.777,-0.027,-13.062,-31.067,-7.507
-0.455,0.832,-0.220,-20.203,-31.372,-17.151
-0.419,0.951,-0.175,-16.357,-23.743,-17.273
-0.403,1.006,-0.111,-4.517,-11.169,-15.259
-0.402,1.029,-0.037,-1.953,-6.653,-14.160
-0.381,1.053,0.000,-4.150,-2.625,-11.292
-0.385,1.059,0.022,1.343,5.066,-9.033
-0.380,1.064,0.019,13.306,14.526,-6.592
-0.375,1.058,0.070,21.667,20.874,-3.967
-0.388,1.032,0.160,22.339,21.851,-1.404
-0.390,0.998,0.244,16.235,17.639,0.549
-0.402,0.983,0.271,7.751,9.033,1.892
-0.414,0.965,0.223,-0.732,-0.916,3.174
-0.401,0.955,0.130,-5.676,-8.301,4.089
-0.392,0.945,0.063,-6.348,-12.024,4.578
-0.383,0.933,0.043,-4.028,-12.024,4.883
-0.373,0.922,0.034,-0.427,-9.888,4.761
-0.368,0.917,0.045,3.784,-6.592,4.150
-0.373,0.911,0.050,6.897,0.854,3.296
-0.386,0.911,0.106,8.789,4.211,3.296
-0.384,0.917,0.142,7.690,5.249,3.540
-0.372,0.920,0.174,5.432,4.150,3.784
-0.365,0.927,0.184,1.892,0.793,3.845
-0.351,0.927,0.160,-1.404,-2.808,3.540
-0.350,0.931,0.120,-1.831,-5.249,3.479
-0.348,0.928,0.084,-0.671,-6.348,3.418
-0.342,0.918,0.063,0.610,-6.165,3.357
-0.344,0.901,0.057,1.465,-5.005,3.357
-0.347,0.885,0.066,2.380,-3.357,3.418
-0.351,0.877,0.080,3.418,-1.099,2.686
-0.363,0.869,0.098,4.211,0.977,1.892
-0.374,0.868,0.115,3.906,1.648,1.282
-0.374,0.870,0.126,3.113,1.160,0.305
-0.375,0.882,0.122,2.014,-0.122,-0.854
-0.375,0.901,0.112,0.549,-1.648,-2.258
-0.368,0.919,0.099,-0.916,-2.563,-3.296
-0.360,0.936,0.092,-1.343,-2.991,-3.479
-0.356,0.952,0.090,-0.977,-2.625,-3.418
-0.362,0.957,0.090,-0.244,-2.075,-3.174
-0.370,0.953,0.094,0.061,-0.183,-1.465
-0.386,0.927,0.109,2.319,0.305,-0.793
-0.384,0.923,0.114,3.357,0.244,-0.610
-0.383,0.918,0.119,3.479,-0.366,-0.732
-0.378,0.922,0.116,2.808,-0.854,-1.221
-0.370,0.929,0.109,2.075,-1.587,-1.587
-0.365,0.937,0.103,1.221,-2.380,-1.770
-0.364,0.944,0.096,0.122,-2.441,-1.831
-0.363,0.949,0.091,-0.061,-2.075,-1.587
-0.367,0.945,0.095,0.000,-1.770,-1.160
-0.374,0.940,0.106,0.061,-1.404,-0.488
-0.378,0.932,0.114,0.610,-1.038,0.061
-0.386,0.925,0.119,0.793,-0.732,0.244
-0.385,0.920,0.119,0.793,-0.793,0.244
-0.380,0.919,0.115,0.916,-1.526,0.122
-0.374,0.923,0.106,1.221,-2.136,-0.305
-0.366,0.931,0.096,1.038,-2.441,-0.610
-0.360,0.935,0.085,1.343,-2.563,-0.793
-0.355,0.941,0.080,1.221,-2.380,-1.038
-0.357,0.944,0.086,0.488,-1.709,-1.099
-0.363,0.939,0.097,0.244,-1.038,-0.854
-0.368,0.928,0.110,0.183,-0.732,-0.061
-0.373,0.910,0.117,0.305,-0.793,0.610
-0.375,0.901,0.116,0.732,-1.282,0.793
-0.374,0.897,0.114,1.282,-1.770,0.427
-0.370,0.899,0.114,1.404,-2.014,-1.038
-0.355,0.922,0.103,1.221,-2.808,-1.526
-0.350,0.931,0.093,0.610,-2.625,-1.831
-0.352,0.934,0.095,-0.061,-1.953,-1.831
-0.355,0.935,0.105,-0.427,-1.221,-1.648
-0.363,0.931,0.118,-0.366,-0.793,-1.404
-0.371,0.925,0.128,-0.122,-0.488,-1.160
-0.378,0.917,0.126,0.366,-1.038,-0.793
-0.381,0.917,0.124,1.221,-1.648,-0.793
-0.379,0.917,0.114,2.014,-2.563,-0.793
-0.370,0.922,0.105,2.747,-3.052,-1.099
-0.360,0.928,0.094,2.747,-3.540,-1.160
-0.351,0.935,0.088,2.197,-3.601,-1.404
-0.349,0.941,0.085,1.587,-3.296,-1.526
-0.353,0.941,0.089,0.793,-2.563,-1.404
-0.361,0.938,0.100,0.732,-1.770,-1.038
-0.373,0.932,0.111,0.854,-1.221,-0.854
-0.382,0.928,0.119,0.854,-0.549,-0.732
-0.384,0.920,0.123,1.160,-0.427,-0.610
-0.382,0.922,0.117,1.526,-1.282,-0.732
-0.374,0.930,0.103,2.136,-2.197,-1.038
-0.362,0.945,0.084,2.075,-2.808,-1.099
-0.360,0.943,0.087,1.465,-2.380,-1.038
-0.357,0.940,0.090,0.854,-1.770,-0.854
-0.361,0.934,0.100,0.610,-1.282,-0.671
-0.366,0.934,0.109,-0.183,-0.732,-0.305
-0.368,0.930,0.124,-0.549,-0.488,-0.061
-0.374,0.927,0.134,-0.122,-0.793,-0.061
-0.374,0.928,0.131,0.488,-1.648,0.244
-0.372,0.929,0.119,1.465,-2.502,0.305

0.300,0.611,-2.578,25.269,-142.395,-5.249
0.349,0.702,-2.845,20.630,-103.455,-9.033
0.394,0.760,-2.919,12.329,-43.701,-11.292
0.438,0.830,-2.713,-1.831,25.208,-14.160
0.454,0.891,-2.345,-18.616,98.633,-21.362
0.455,0.982,-1.869,-34.912,163.269,-31.860
0.427,1.092,-1.311,-50.293,212.280,-40.833
0.339,1.226,-0.695,-60.608,245.178,-44.983
0.247,1.314,-0.142,-57.190,264.709,-41.138
0.146,1.404,0.324,-38.330,272.522,-29.907
0.075,1.473,0.672,-13.184,272.095,-14.648
0.029,1.417,0.955,5.432,266.296,0.549
-0.023,1.352,1.254,10.376,240.540,19.043
-0.186,1.189,1.849,6.653,241.089,19.897
-0.267,1.133,2.078,2.075,226.562,16.968
-0.317,1.100,2.201,-7.141,200.562,11.841
-0.358,1.090,2.195,-20.569,166.382,7.141
-0.412,0.911,2.073,-31.006,128.357,3.662
-0.325,1.054,4.000,83.435,82.397,1.953
-0.953,-0.262,3.218,488.281,-19.470,10.315
-0.677,1.355,1.094,384.216,-98.206,33.569
-0.065,1.354,0.107,94.177,-164.734,31.860
-0.222,0.564,0.149,-45.166,-151.550,23.987
-0.177,0.467,-0.048,-104.919,-126.282,8.484
-0.334,0.680,-0.284,-98.328,-98.572,-7.202
-0.367,0.728,-0.305,-65.002,-61.523,-12.512
-0.380,0.783,-0.290,-49.438,-19.287,-8.545
-0.379,0.814,-0.198,-46.326,9.949,-6.287
-0.412,0.834,-0.092,-35.461,28.503,-5.432
-0.456,0.892,-0.004,-15.259,42.419,-3.418
-0.425,0.948,0.063,4.883,52.551,0.061
-0.428,0.962,0.142,17.700,54.626,3.113
-0.480,0.958,0.173,22.705,54.199,4.150
-0.438,0.994,0.252,19.958,53.650,7.080
-0.451,0.935,0.347,17.517,49.927,11.658
-0.438,0.839,0.364,19.592,36.438,11.597
-0.430,0.831,0.317,19.226,26.672,10.620
-0.415,0.814,0.243,12.939,16.052,9.399
-0.396,0.815,0.179,5.859,6.226,8.118
-0.369,0.811,0.142,1.648,-3.723,6.348
-0.370,0.820,0.103,0.000,-12.756,4.639
-0.405,0.843,0.055,2.686,-16.663,5.127
-0.422,0.880,0.009,10.925,-12.634,8.545
-0.435,0.871,0.034,20.325,-2.197,12.390
-0.436,0.873,0.057,26.184,8.850,14.160
-0.461,0.878,0.096,26.978,15.015,14.099
-0.473,0.894,0.132,24.963,18.372,12.817
-0.486,0.890,0.178,22.217,21.484,10.864
-0.495,0.900,0.236,19.653,24.048,9.277
-0.499,0.910,0.272,18.311,24.414,8.789
-0.486,0.903,0.285,18.188,23.010,8.423
-0.475,0.883,0.255,16.785,18.860,7.202
-0.468,0.871,0.231,13.489,13.977,4.944
-0.466,0.860,0.216,9.888,9.521,2.563
-0.454,0.846,0.177,4.944,6.042,-0.244
-0.459,0.849,0.176,0.244,2.441,-1.648
-0.462,0.841,0.171,-1.953,-0.061,-2.380
-0.458,0.838,0.178,-1.953,-2.014,-2.441
-0.457,0.827,0.206,-2.197,-3.113,-3.235
-0.461,0.843,0.226,-4.272,-4.333,-4.211
-0.469,0.854,0.228,-8.484,-5.981,-5.249
-0.468,0.864,0.225,-12.329,-7.996,-6.775
-0.478,0.886,0.201,-13.855,-10.193,-7.446
-0.481,0.906,0.165,-11.902,-11.658,-6.348
-0.487,0.925,0.137,-7.385,-11.353,-4.700
-0.491,0.929,0.123,-2.075,-9.644,-2.808
-0.489,0.914,0.131,2.808,-5.127,1.343
-0.473,0.879,0.157,6.409,-3.479,2.319
-0.461,0.865,0.163,6.592,-1.770,2.258
-0.461,0.857,0.176,5.432,-0.183,1.709
-0.458,0.852,0.181,3.662,1.160,1.221
-0.459,0.845,0.184,0.793,1.648,0.549
-0.462,0.849,0.178,-2.563,1.099,-0.366
-0.456,0.862,0.177,-4.822,0.366,-1.404
-0.466,0.862,0.171,-6.226,-0.549,-3.113
-0.473,0.877,0.162,-6.714,-1.953,-4.089
-0.474,0.889,0.160,-7.446,-3.357,-4.211
-0.470,0.890,0.164,-8.911,-4.639,-4.272
-0.469,0.892,0.169,-10.254,-5.981,-4.272
-0.468,0.894,0.178,-9.949,-6.592,-4.395
-0.472,0.896,0.173,-8.179,-6.897,-4.333
-0.472,0.898,0.164,-5.432,-6.042,-3.723
-0.476,0.892,0.166,-3.540,-3.906,-2.869
-0.481,0.890,0.154,-3.540,-3.845,-2.563
-0.475,0.891,0.141,-3.906,-3.845,-1.770
-0.470,0.889,0.135,-4.211,-4.089,-1.587
-0.467,0.895,0.127,-4.456,-4.761,-1.343
-0.460,0.898,0.117,-4.272,-5.188,-0.854
-0.454,0.892,0.114,-3.357,-4.883,-0.244
-0.445,0.890,0.112,-2.625,-4.395,-0.244
-0.436,0.890,0.114,-2.258,-3.479,-0.549
-0.450,0.902,0.134,-1.892,-2.136,-1.038
-0.453,0.923,0.144,-0.549,-0.305,-0.793
-0.456,0.915,0.164,1.404,1.099,-0.244
-0.466,0.923,0.163,3.845,1.709,1.526
-0.467,0.914,0.156,5.615,2.930,3.357
-0.465,0.894,0.154,6.714,3.235,4.944
-0.465,0.885,0.158,6.409,2.930,5.493
-0.467,0.879,0.153,4.883,1.831,5.371
-0.467,0.868,0.154,4.211,1.099,5.188
-0.468,0.868,0.155,3.235,0.000,4.700
-0.461,0.864,0.150,1.587,-0.671,3.601
-0.465,0.866,0.157,-0.549,-0.916,2.258
-0.465,0.871,0.164,-1.953,-0.793,1.099
-0.464,0.869,0.169,-2.747,-0.854,0.610
-0.467,0.869,0.168,-3.418,-0.977,0.000
-0.455,0.865,0.169,-3.906,-1.221,-0.488
-0.460,0.865,0.164,-3.845,-1.160,-0.793
-0.459,0.871,0.141,-1.465,-1.099,-0.305
-0.460,0.875,0.131,0.793,-0.549,0.427
-0.458,0.873,0.135,2.014,-0.122,1.038
-0.458,0.875,0.146,2.563,0.183,1.160
-0.460,0.884,0.150,1.953,-0.122,0.916
-0.460,0.886,0.149,1.770,-0.366,1.038
-0.458,0.879,0.147,1.282,-0.671,0.732
-0.456,0.873,0.149,0.488,-1.038,0.610
-0.457,0.873,0.155,0.183,-1.526,0.366
-0.459,0.877,0.155,0.732,-1.892,0.427
-0.461,0.879,0.148,1.282,-2.136,0.732

-0.153,0.818,-1.682,29.480,-73.730,12.085
-0.078,0.825,-1.916,26.367,-63.049,13.855
0.000,0.850,-2.067,13.611,-45.532,13.000
0.106,0.871,-2.149,-5.310,-22.156,9.460
0.192,0.896,-2.155,-28.809,3.784,2.747
0.249,0.906,-2.057,-54.077,31.738,-6.775
0.253,0.941,-1.818,-74.402,63.782,-17.944
0.203,0.988,-1.499,-82.336,100.830,-26.550
0.163,1.035,-1.155,-75.928,138.916,-30.029
0.098,1.143,-0.713,-61.218,174.072,-27.100
0.037,1.259,-0.257,-24.902,241.516,-6.714
-0.088,1.404,0.702,-6.592,257.812,5.981
-0.158,1.409,1.147,-5.005,257.935,19.714
-0.201,1.329,1.544,-11.536,245.117,29.724
-0.255,1.261,1.786,-26.001,215.881,31.677
-0.331,1.213,1.918,-39.978,175.720,27.832
-0.420,1.174,1.972,-45.898,137.817,21.240
-0.464,1.112,1.919,-46.753,104.126,16.418
-0.505,1.048,1.777,-46.692,69.092,15.381
-0.493,0.991,1.578,-44.739,37.720,16.663
-0.495,0.958,1.359,-39.429,14.893,17.822
-0.493,0.920,1.128,-31.799,-2.075,19.104
-0.479,0.883,0.922,-24.231,-15.503,20.569
-0.450,0.858,0.733,-19.287,-25.146,20.752
-0.399,0.872,1.513,-8.728,-32.104,19.409
-1.011,0.818,1.845,118.591,-55.603,23.193
-0.647,0.584,0.907,263.550,-48.889,43.457
-0.356,0.962,0.451,217.346,-60.669,59.448
-0.387,0.915,0.151,92.834,-67.810,47.241
-0.464,0.762,0.083,-1.648,-61.707,29.846
-0.396,0.629,0.174,-27.222,-42.908,9.399
-0.425,0.644,0.140,-38.086,-17.761,-16.541
-0.442,0.783,0.002,-58.044,-29.297,-23.010
-0.427,0.817,-0.051,-59.509,-32.776,-24.292
-0.422,0.878,-0.068,-53.040,-30.579,-21.973
-0.433,0.930,-0.039,-39.429,-22.400,-16.968
-0.460,0.964,0.001,-21.606,-10.925,-9.644
-0.468,0.981,0.046,-4.944,0.610,-2.625
-0.478,0.971,0.081,7.202,11.108,3.357
-0.487,0.944,0.098,14.771,19.348,8.362
-0.483,0.917,0.109,18.494,23.926,11.902
-0.473,0.891,0.105,21.057,24.963,13.916
-0.472,0.857,0.099,21.729,23.682,14.587
-0.460,0.830,0.083,18.616,19.531,13.977
-0.453,0.820,0.057,13.245,13.428,12.268
-0.453,0.813,0.040,9.155,8.118,10.010
-0.454,0.809,0.031,5.859,2.686,6.897
-0.452,0.813,0.035,1.038,-2.441,3.479
-0.465,0.827,0.036,-2.869,-5.432,1.038
-0.475,0.837,0.036,-2.869,-7.385,0.061
-0.476,0.833,0.034,0.732,-7.446,0.427
-0.479,0.824,0.037,4.883,-5.554,0.793
-0.478,0.818,0.045,7.568,-3.479,0.610
-0.478,0.821,0.048,8.972,-0.732,-0.122
-0.475,0.830,0.051,10.010,2.502,-1.831
-0.477,0.858,0.087,9.155,7.629,-2.136
-0.477,0.871,0.095,9.277,9.155,-1.953
-0.477,0.873,0.092,9.033,9.949,-1.526
-0.475,0.868,0.105,8.301,10.559,-0.977
-0.472,0.857,0.108,4.639,8.789,-0.793
-0.468,0.861,0.088,0.305,5.371,-1.099
-0.469,0.867,0.067,-2.441,2.014,-1.465
-0.467,0.870,0.056,-3.357,0.244,-1.892
-0.470,0.877,0.051,-3.357,-1.160,-2.991
-0.478,0.890,0.052,-2.502,-1.404,-3.784
-0.488,0.893,0.062,-1.160,-0.732,-3.906
-0.500,0.893,0.070,-0.061,0.488,-3.540
-0.508,0.893,0.077,1.038,1.770,-3.113
-0.506,0.876,0.086,1.526,2.380,-2.563
-0.505,0.874,0.086,1.099,2.258,-2.380
-0.505,0.876,0.089,0.549,2.197,-2.930
-0.503,0.876,0.092,0.549,1.831,-3.296
-0.499,0.876,0.089,0.488,1.099,-3.601
-0.499,0.885,0.090,-0.122,-0.061,-3.967
-0.502,0.902,0.087,-1.099,-1.221,-4.272
-0.507,0.920,0.080,-1.526,-1.831,-4.089
-0.508,0.934,0.087,-1.709,-2.075,-1.648
-0.501,0.925,0.098,-1.526,-2.747,-0.244
-0.494,0.905,0.096,-1.160,-2.380,0.793
-0.491,0.893,0.089,-1.465,-2.380,1.160
-0.487,0.882,0.081,-2.991,-2.380,0.916
-0.485,0.865,0.077,-4.456,-1.953,0.366
-0.485,0.860,0.071,-6.165,-2.197,-0.671
-0.482,0.865,0.062,-8.057,-2.747,-1.953
-0.488,0.878,0.053,-8.728,-3.418,-2.747
-0.489,0.891,0.047,-6.409,-3.357,-2.808
-0.492,0.901,0.050,-4.150,-2.686,-2.380
-0.491,0.912,0.052,-2.563,-2.075,-1.648
-0.488,0.917,0.057,-0.732,-1.099,-0.488
-0.481,0.911,0.064,1.160,0.244,1.038
-0.479,0.908,0.069,2.625,1.526,2.014
-0.475,0.902,0.076,3.357,2.625,2.869
-0.475,0.891,0.084,3.967,3.662,3.479
-0.474,0.881,0.088,4.395,4.456,3.723
-0.471,0.872,0.089,3.967,4.456,3.845
-0.466,0.856,0.086,2.258,3.540,3.296
-0.470,0.844,0.088,0.305,2.563,2.441
-0.476,0.844,0.081,-0.549,2.258,1.404
-0.475,0.848,0.078,-0.244,1.892,0.488
-0.475,0.857,0.076,-0.061,1.648,-0.549
-0.481,0.870,0.078,0.000,1.526,-1.221
-0.482,0.881,0.086,0.610,1.221,-1.587
-0.484,0.892,0.098,-0.427,-0.244,-1.343
-0.479,0.892,0.098,-0.305,-0.977,-1.038
-0.485,0.881,0.094,0.427,-1.465,-0.793
-0.479,0.879,0.088,1.099,-1.648,-0.244
-0.478,0.873,0.090,1.221,-1.526,-0.244
-0.481,0.874,0.087,0.671,-1.465,-0.549
-0.480,0.877,0.079,0.610,-1.282,-0.366
-0.477,0.874,0.073,1.404,-1.099,-0.244
-0.475,0.870,0.067,2.075,-0.916,-0.366
-0.471,0.874,0.065,2.197,-0.854,-0.732
-0.474,0.886,0.063,2.502,-0.916,-1.038
-0.471,0.889,0.062,2.808,-0.916,-1.160
-0.471,0.886,0.074,2.625,-0.916,-1.038
-0.473,0.883,0.079,2.197,-0.610,-0.732
-0.473,0.887,0.075,1.953,-0.366,-0.305
-0.476,0.880,0.074,1.099,-0.244,-0.183
-0.479,0.870,0.077,0.000,-0.610,-0.183

-1.157,1.018,3.180,78.247,2.869,28.931
-1.071,0.590,3.071,233.765,-62.927,46.082
-0.320,0.557,1.289,191.284,-139.465,68.298
-0.820,1.267,0.355,60.791,-138.245,56.946
-0.260,0.834,0.237,7.507,-95.398,61.523
-0.375,0.364,0.355,-16.357,-63.293,34.607
-0.394,0.271,0.370,-25.635,-40.894,9.155
-0.419,0.413,0.327,-16.113,-22.278,-7.629
-0.431,0.507,0.148,-9.521,-9.033,-19.043
-0.375,0.572,0.081,-25.574,-4.150,-27.161
-0.372,0.661,0.009,-52.979,-8.362,-34.363
-0.409,0.761,-0.010,-68.970,-9.521,-36.743
-0.446,0.837,0.006,-69.336,-2.502,-34.119
-0.470,0.905,0.044,-63.782,8.057,-28.076
-0.452,0.966,0.090,-55.908,17.700,-20.630
-0.496,0.974,0.083,-46.448,22.644,-15.930
-0.517,0.995,0.066,-36.987,22.705,-13.672
-0.523,1.010,0.027,-29.602,20.813,-9.644
-0.514,0.986,-0.060,-19.470,6.409,-7.751
-0.508,0.956,-0.085,-12.329,-0.610,-6.042
-0.504,0.959,-0.096,-6.042,-5.737,-4.883
-0.482,0.964,-0.085,-1.892,-8.850,-3.845
-0.490,0.964,-0.055,3.113,-10.559,-2.258
-0.471,0.950,-0.016,8.118,-10.803,0.488
-0.480,0.931,0.031,12.329,-10.071,3.845
-0.477,0.904,0.075,17.578,-8.179,7.507
-0.472,0.867,0.096,23.376,-5.371,10.803
-0.468,0.846,0.107,26.855,-2.136,12.939
-0.478,0.832,0.125,27.161,0.854,13.428
-0.496,0.820,0.149,25.208,3.174,12.085
-0.499,0.823,0.143,19.470,4.028,9.399
-0.494,0.830,0.118,9.888,2.502,5.432
-0.497,0.840,0.094,0.244,-0.183,0.549
-0.498,0.872,0.071,-7.507,-2.930,-3.479
-0.500,0.892,0.063,-11.841,-4.089,-5.493
-0.498,0.903,0.047,-12.512,-4.333,-6.409
-0.489,0.907,0.036,-10.010,-3.723,-5.310
-0.493,0.904,0.041,-5.676,-1.526,-3.540
-0.494,0.891,0.047,-1.160,1.770,0.732
-0.493,0.873,0.062,4.028,5.310,1.404
-0.490,0.870,0.065,2.258,4.883,1.404
-0.491,0.878,0.067,-0.183,3.662,0.732
-0.494,0.891,0.065,-1.282,1.953,-0.061
-0.496,0.893,0.070,-1.526,0.549,-0.305
-0.499,0.894,0.071,-0.854,-0.244,0.122
-0.501,0.895,0.071,-0.671,-0.854,0.427
-0.499,0.888,0.062,-1.221,-1.160,0.610
-0.499,0.884,0.059,-1.709,-1.587,0.427
-0.497,0.876,0.056,-2.502,-1.770,-0.061
-0.500,0.871,0.056,-3.235,-1.953,-0.793
-0.495,0.876,0.048,-4.028,-2.625,-1.770
-0.497,0.885,0.038,-4.150,-3.540,-2.380
-0.491,0.893,0.033,-4.028,-3.601,-2.258
-0.488,0.895,0.032,-3.113,-3.357,-1.770
-0.484,0.896,0.035,-2.014,-2.502,-0.977
-0.479,0.899,0.035,-0.916,-1.282,-0.183
-0.477,0.896,0.044,-0.122,0.427,0.671
-0.473,0.885,0.051,0.427,1.953,1.770
-0.474,0.876,0.064,-0.244,2.930,2.258
-0.472,0.880,0.056,-0.977,3.906,2.380
-0.478,0.876,0.065,-2.441,4.456,1.770
-0.486,0.873,0.063,-3.601,4.822,1.343
-0.490,0.863,0.060,-4.089,4.639,1.099
-0.491,0.859,0.050,-3.662,4.028,0.854
-0.495,0.877,0.034,-3.052,1.587,-0.427
-0.490,0.878,0.034,-1.953,0.916,-1.038
-0.487,0.892,0.040,-1.526,0.488,-1.282
-0.484,0.891,0.045,-1.465,0.061,-1.282
-0.477,0.892,0.045,-0.610,0.061,-0.854
-0.474,0.891,0.048,0.122,0.732,-0.305
-0.471,0.888,0.052,0.305,1.648,-0.061
-0.474,0.884,0.056,0.305,2.014,0.183
-0.476,0.878,0.064,0.427,2.197,0.732
-0.472,0.871,0.065,1.282,2.258,1.343
-0.478,0.870,0.066,2.808,2.502,1.709
-0.482,0.872,0.068,4.028,2.625,1.831
-0.483,0.871,0.066,4.150,2.502,1.770
-0.486,0.869,0.070,3.723,2.075,1.282
-0.485,0.865,0.076,3.418,1.831,0.549
-0.485,0.868,0.081,2.258,1.404,-0.244
-0.486,0.870,0.082,0.122,0.366,-1.160
-0.486,0.870,0.082,-1.892,-0.732,-1.648
-0.486,0.874,0.080,-3.174,-1.587,-2.136
-0.484,0.877,0.071,-3.479,-2.075,-2.563
-0.485,0.878,0.066,-3.296,-2.258,-2.869
-0.486,0.883,0.060,-2.869,-2.319,-2.991
-0.493,0.893,0.056,-2.258,-2.014,-2.930
-0.494,0.902,0.043,-0.366,-1.526,-2.136
-0.486,0.908,0.038,1.038,-0.549,-0.977
-0.490,0.908,0.033,0.488,0.122,-0.854
-0.487,0.899,0.032,-0.427,0.366,-0.427
-0.484,0.894,0.039,-0.916,0.183,-0.183
-0.478,0.886,0.040,-0.916,0.427,0.183
-0.479,0.875,0.050,-0.183,0.671,0.610
-0.478,0.869,0.051,0.244,1.282,0.732
-0.479,0.869,0.053,0.183,1.892,0.427
-0.483,0.869,0.059,-0.427,1.953,0.000
-0.483,0.870,0.056,-1.099,1.953,-0.610
-0.481,0.873,0.051,-1.770,1.404,-0.977
-0.482,0.881,0.046,-2.380,0.916,-1.465
-0.483,0.886,0.047,-2.197,0.549,-1.587
-0.484,0.886,0.053,-0.671,0.732,-1.282
-0.486,0.885,0.054,0.610,1.221,-0.671
-0.486,0.887,0.055,1.648,1.892,-0.061
-0.470,0.877,0.041,2.136,2.197,0.427
-0.484,0.876,0.049,1.221,1.709,0.427
-0.472,0.866,0.048,-0.183,0.610,0.305
-0.477,0.863,0.048,-1.038,0.000,0.122
-0.478,0.863,0.048,-1.892,-0.732,-0.427
-0.481,0.871,0.048,-2.930,-1.587,-1.282
-0.483,0.879,0.048,-3.601,-2.258,-2.014
-0.484,0.883,0.053,-3.967,-2.991,-2.625
-0.487,0.893,0.058,-3.723,-3.418,-2.747
-0.484,0.903,0.056,-0.305,-2.625,-1.465
-0.485,0.906,0.033,1.831,-1.465,-0.244
-0.482,0.894,0.035,3.174,-0.061,0.732
-0.481,0.886,0.043,3.845,1.648,1.160
-0.482,0.879,0.049,4.211,2.625,1.282
-0.482,0.877,0.053,4.517,3.296,1.709

0.272,0.893,-2.488,57.983,-176.147,3.052
0.468,1.005,-3.187,49.988,-167.053,-0.916
0.523,1.085,-3.579,22.827,-123.657,-3.967
0.596,1.057,-3.568,-16.724,-46.448,-8.728
0.675,1.078,-3.097,-59.570,57.800,-20.569
0.617,1.113,-2.372,-89.722,158.813,-36.682
0.584,1.240,-1.528,-99.182,242.676,-49.988
0.464,1.428,-0.614,-92.468,302.673,-52.429
0.303,1.563,0.290,-70.007,336.060,-39.429
0.151,1.604,0.949,-35.400,343.018,-15.564
0.036,1.590,1.374,-3.906,328.796,10.254
-0.058,1.552,1.632,11.719,304.016,29.602
-0.138,1.479,1.802,6.714,274.292,37.292
-0.197,1.387,1.898,-14.771,237.976,36.316
-0.264,1.304,1.915,-41.321,196.472,31.555
-0.307,1.187,1.830,-61.035,155.640,27.222
-0.340,1.089,1.658,-69.214,118.896,26.428
-0.335,0.987,1.457,-65.613,90.881,29.419
-0.317,0.880,1.293,-59.326,70.984,33.752
-0.320,0.775,1.161,-55.908,54.138,36.133
-0.017,1.706,3.116,-16.174,19.043,44.983
-1.962,-0.078,3.205,181.702,-80.200,54.443
-0.036,-0.188,2.335,296.753,-120.789,86.365
-0.498,1.028,0.668,172.424,-128.723,101.379
-0.308,0.771,0.141,76.111,-112.915,81.360
-0.231,0.170,0.203,54.810,-69.580,53.345
-0.194,0.135,0.093,31.311,-31.494,23.132
-0.262,0.356,-0.022,2.502,-6.409,-3.784
-0.318,0.438,0.113,-10.498,11.169,-24.414
-0.329,0.535,0.106,-19.043,14.160,-38.818
-0.308,0.740,0.019,-41.687,11.108,-44.739
-0.292,0.936,-0.031,-60.547,8.545,-42.542
-0.428,0.988,0.002,-67.200,16.541,-29.114
-0.457,1.046,0.278,-52.917,37.720,-22.644
-0.515,1.019,0.340,-50.476,38.879,-17.761
-0.550,0.991,0.362,-51.208,32.959,-15.747
-0.551,0.958,0.312,-50.476,22.339,-16.663
-0.550,0.935,0.224,-45.410,11.292,-17.883
-0.554,0.919,0.121,-35.217,2.136,-18.188
-0.515,0.933,0.033,-24.109,-3.174,-15.686
-0.509,0.939,0.000,-12.207,-7.385,-11.047
-0.497,0.955,0.006,-2.075,-9.949,-6.958
-0.489,0.948,0.025,5.066,-9.155,-3.906
-0.484,0.943,0.038,8.789,-8.057,-1.160
-0.477,0.944,0.062,9.705,-5.859,1.465
-0.471,0.927,0.077,8.728,-3.479,4.761
-0.473,0.908,0.064,7.812,0.610,7.080
-0.470,0.872,0.054,7.568,4.456,7.141
-0.458,0.851,0.063,4.578,4.700,4.761
-0.451,0.860,0.075,-0.549,2.747,0.854
-0.470,0.890,0.058,-3.662,0.488,-2.502
-0.469,0.911,0.047,-5.188,-0.916,-4.272
-0.466,0.925,0.040,-6.836,-1.709,-5.005
-0.464,0.911,0.028,-8.301,-1.465,-6.470
-0.473,0.914,0.098,-8.850,-1.038,-6.653
-0.470,0.899,0.113,-8.118,0.610,-5.920
-0.467,0.892,0.118,-8.911,-0.061,-5.981
-0.457,0.893,0.094,-9.338,-2.502,-6.531
-0.432,0.905,0.058,-9.338,-4.211,-7.141
-0.438,0.936,0.052,-9.766,-6.287,-7.690
-0.431,0.926,0.006,-7.690,-7.629,-7.019
-0.441,0.964,0.011,-3.906,-8.850,-4.150
-0.443,0.962,-0.011,-2.014,-8.118,-1.648
-0.471,0.953,-0.001,-2.075,-5.798,0.183
-0.476,0.949,-0.001,-2.014,-3.052,2.747
-0.487,0.937,-0.003,-1.221,-0.061,5.188
-0.478,0.913,-0.002,-0.488,2.319,6.531
-0.476,0.890,0.001,-0.427,2.747,6.836
-0.472,0.872,0.007,-0.183,2.625,6.042
-0.469,0.863,0.017,1.221,2.075,4.456
-0.455,0.858,0.030,2.441,1.099,3.052
-0.446,0.867,0.026,2.502,-0.488,1.465
-0.445,0.878,0.027,2.258,-0.793,0.061
-0.444,0.886,0.038,3.113,-0.549,-0.427
-0.443,0.891,0.058,4.639,0.183,-0.244
-0.450,0.895,0.061,6.042,1.282,0.549
-0.447,0.893,0.059,7.996,2.136,1.587
-0.448,0.890,0.052,8.606,2.686,2.380
-0.452,0.902,0.041,6.653,2.747,2.136
-0.457,0.911,0.041,2.930,1.160,1.099
-0.463,0.917,0.039,-1.709,-0.549,-0.305
-0.461,0.918,0.043,-5.188,-2.808,-1.343
-0.459,0.911,0.060,-9.155,-2.625,-1.648
-0.455,0.902,0.059,-8.667,-2.319,-2.075
-0.453,0.896,0.053,-7.568,-2.380,-1.953
-0.447,0.902,0.038,-5.615,-1.770,-1.343
-0.449,0.913,0.029,-2.563,-0.610,-0.427
-0.446,0.915,0.021,0.854,0.916,0.610
-0.443,0.901,0.001,2.319,1.953,1.343
-0.446,0.901,0.000,2.197,1.892,1.587
-0.446,0.898,0.010,0.793,0.732,1.831
-0.454,0.901,0.027,0.793,1.343,1.831
-0.457,0.907,0.054,2.014,1.587,2.563
-0.458,0.910,0.069,2.869,1.953,3.174
-0.461,0.903,0.081,2.686,1.892,3.601
-0.461,0.895,0.084,1.587,1.709,3.906
-0.465,0.894,0.083,0.977,1.526,3.845
-0.464,0.892,0.084,0.732,0.854,2.930
-0.465,0.887,0.084,0.244,0.427,1.770
-0.472,0.888,0.074,-0.732,-0.610,0.610
-0.472,0.893,0.058,-1.465,-2.197,-0.244
-0.469,0.890,0.047,-2.258,-3.296,-1.099
-0.467,0.889,0.042,-3.235,-4.028,-1.892
-0.464,0.886,0.043,-3.967,-5.066,-2.747
-0.458,0.902,0.044,-5.615,-5.432,-2.747
-0.458,0.903,0.049,-6.226,-5.737,-2.380
-0.452,0.902,0.050,-5.798,-5.737,-1.465
-0.450,0.906,0.039,-4.883,-5.676,-0.427
-0.447,0.910,0.022,-2.686,-5.188,0.977
-0.448,0.908,0.017,0.122,-4.272,2.258
-0.453,0.902,0.017,1.465,-3.357,2.686
-0.452,0.898,0.017,1.709,-2.502,2.747
-0.453,0.897,0.018,1.404,-1.953,2.441
-0.454,0.902,0.018,0.549,-1.465,1.831
-0.457,0.901,0.022,0.061,-1.099,1.160
-0.460,0.894,0.029,0.244,-0.610,0.549
-0.461,0.888,0.031,0.610,-0.122,0.427
-0.461,0.887,0.036,1.160,0.671,0.244
-0.464,0.894,0.036,1.404,1.038,0.183

0.255,0.728,-2.355,-0.183,-112.671,5.127
0.432,0.773,-2.637,-7.690,-85.632,1.587
0.525,0.760,-2.755,-21.912,-45.532,-5.188
0.617,0.814,-2.700,-42.847,6.897,-16.724
0.615,0.924,-2.433,-64.331,70.679,-32.288
0.545,1.024,-1.959,-75.378,141.357,-49.072
0.468,1.116,-1.393,-73.242,207.825,-59.753
0.388,1.293,-0.781,-66.650,259.277,-61.279
0.245,1.454,-0.185,-52.612,295.105,-53.101
0.112,1.534,0.407,-30.945,318.542,-35.156
0.025,1.517,0.872,-12.451,323.425,-12.695
-0.043,1.428,1.215,-2.991,281.433,17.578
-0.193,1.262,1.618,-4.333,251.892,19.653
-0.270,1.202,1.715,-14.404,218.811,16.418
-0.339,1.183,1.760,-26.428,184.814,12.573
-0.380,1.144,1.755,-34.729,154.358,9.766
-0.393,1.087,1.674,-42.664,123.169,7.935
-0.421,1.030,1.511,-49.072,91.431,6.714
-0.196,1.979,3.344,-42.236,63.293,6.958
-2.421,0.977,4.000,159.790,-85.999,22.644
-0.358,-0.048,2.449,377.075,-203.857,60.974
-0.602,1.507,0.391,182.617,-155.334,75.195
-0.260,1.008,0.114,87.463,-140.015,66.833
-0.130,0.398,0.172,38.940,-110.596,54.688
-0.190,0.416,-0.030,-5.493,-71.045,31.433
-0.285,0.442,0.002,-18.066,-40.039,7.019
-0.318,0.545,-0.085,-23.804,-16.602,-17.029
-0.343,0.630,-0.153,-29.663,2.075,-30.640
-0.320,0.691,-0.106,-30.823,11.658,-36.194
-0.380,0.842,-0.090,-32.166,17.334,-35.522
-0.431,0.978,-0.003,-27.954,24.170,-30.762
-0.433,1.033,0.068,-27.588,31.128,-23.743
-0.436,1.031,0.120,-30.640,35.400,-16.174
-0.475,1.047,0.170,-34.180,32.959,-16.479
-0.517,1.045,0.163,-39.612,26.672,-16.785
-0.515,1.008,0.159,-46.509,19.592,-16.846
-0.510,0.973,0.129,-47.607,11.169,-16.296
-0.487,0.964,0.057,-42.358,4.456,-13.672
-0.458,0.970,0.007,-33.020,-1.526,-9.766
-0.427,0.945,-0.049,-23.987,-7.019,-5.798
-0.421,0.919,-0.044,-18.738,-12.695,-3.662
-0.438,0.888,-0.034,-14.160,-16.418,-1.038
-0.439,0.871,-0.030,-8.423,-16.541,2.502
-0.448,0.863,-0.016,-2.808,-13.550,5.981
-0.447,0.843,0.000,2.808,-8.423,8.606
-0.462,0.835,0.031,5.676,-4.150,8.484
-0.461,0.836,0.044,5.188,-1.099,6.836
-0.474,0.854,0.056,1.587,0.610,4.150
-0.483,0.882,0.041,-2.625,0.916,0.793
-0.479,0.918,0.017,-7.263,-0.366,-2.380
-0.475,0.940,-0.003,-10.681,-2.075,-4.150
-0.470,0.958,-0.026,-10.864,-3.235,-4.700
-0.468,0.962,-0.024,-8.667,-3.418,-4.578
-0.452,0.951,-0.023,-5.859,-3.174,-3.052
-0.438,0.909,-0.016,-6.042,-3.113,-2.869
-0.438,0.893,-0.007,-4.822,-2.380,-2.441
-0.437,0.886,-0.007,-4.028,-0.305,-2.197
-0.438,0.884,-0.004,-3.418,1.587,-1.953
-0.441,0.894,0.008,-3.662,2.258,-2.258
-0.448,0.913,0.018,-4.089,1.770,-2.136
-0.456,0.925,0.029,-4.028,1.221,-1.587
-0.462,0.937,0.035,-3.174,0.671,-0.671
-0.465,0.941,0.038,-1.526,0.244,0.549
-0.456,0.929,0.042,0.244,0.305,1.831
-0.454,0.924,0.039,0.427,-0.183,2.441
-0.456,0.920,0.023,-0.549,-1.526,2.502
-0.451,0.908,0.012,-2.014,-2.502,2.258
-0.448,0.902,-0.008,-3.845,-4.028,1.770
-0.448,0.893,-0.032,-5.371,-5.798,0.916
-0.447,0.882,-0.042,-7.263,-7.507,-0.122
-0.453,0.888,-0.049,-7.996,-8.667,-0.916
-0.452,0.905,-0.047,-6.287,-8.545,-0.793
-0.452,0.917,-0.036,-3.723,-6.592,-0.366
-0.450,0.922,-0.022,-0.793,-4.150,1.038
-0.446,0.909,0.000,3.662,1.587,1.343
-0.444,0.901,0.005,4.028,3.601,1.221
-0.442,0.896,0.012,3.296,4.028,0.854
-0.440,0.897,0.012,3.113,3.906,0.610
-0.435,0.898,0.006,2.747,2.930,0.610
-0.429,0.890,0.001,1.953,1.465,0.916
-0.427,0.891,0.001,1.526,-0.061,1.038
-0.431,0.900,0.000,1.160,-1.282,1.282
-0.431,0.905,0.006,1.404,-2.014,1.831
-0.430,0.915,0.005,0.854,-2.319,2.136
-0.433,0.915,0.007,-0.916,-2.502,1.953
-0.438,0.910,0.010,-2.319,-2.563,1.648
-0.444,0.903,0.008,-2.930,-2.563,1.343
-0.444,0.899,0.001,-2.991,-2.197,0.916
-0.442,0.895,-0.010,-2.441,-2.136,0.610
-0.443,0.895,-0.021,-1.099,-2.197,0.427
-0.441,0.896,-0.023,0.793,-1.892,0.427
-0.437,0.899,-0.021,2.258,-1.587,0.366
-0.435,0.899,-0.017,3.357,-1.038,0.244
-0.434,0.901,-0.009,3.418,-0.488,0.183
-0.436,0.902,0.003,2.930,-0.305,0.122
-0.442,0.903,0.017,2.869,0.000,0.488
-0.447,0.904,0.032,2.869,0.183,0.671
-0.453,0.904,0.040,2.319,0.061,0.732
-0.452,0.895,0.037,0.793,-0.549,0.854
-0.445,0.884,0.030,-1.038,-1.282,0.427
-0.438,0.882,0.019,-1.892,-2.197,-0.183
-0.438,0.887,0.003,-2.136,-2.930,-0.793
-0.433,0.894,-0.005,-1.953,-3.174,-1.892
-0.444,0.907,-0.019,1.099,-1.892,-1.892
-0.443,0.911,-0.026,3.967,-0.061,-1.160
-0.447,0.910,-0.018,5.981,1.282,-0.366
-0.450,0.910,-0.011,6.897,2.380,0.000
-0.452,0.912,-0.004,6.409,2.808,-0.122
-0.454,0.916,0.002,5.066,2.441,-0.366
-0.458,0.916,0.014,3.540,1.953,-0.793
-0.455,0.913,0.016,1.953,1.282,-0.977
-0.453,0.914,0.011,0.488,0.183,-0.977
-0.448,0.909,0.011,-0.305,-0.488,-0.854
-0.448,0.910,0.011,-0.244,-0.671,-0.793
-0.445,0.910,0.012,0.732,-0.793,-0.305
-0.442,0.904,0.016,1.648,-1.038,0.183
-0.437,0.904,0.019,1.648,-1.709,0.244
-0.439,0.911,0.012,0.549,-2.502,-0.122
-0.445,0.914,0.011,-0.793,-3.357,-0.366

0.350,0.749,-2.544,24.780,-105.652,13.123
0.524,0.811,-2.879,20.752,-72.083,8.301
0.636,0.855,-3.013,-2.075,-24.658,-4.333
0.681,0.893,-2.880,-36.499,31.067,-23.254
0.689,0.988,-2.498,-72.388,94.543,-44.861
0.644,1.111,-1.965,-95.093,158.325,-63.232
0.507,1.252,-1.363,-94.421,217.224,-74.097
0.371,1.455,-0.650,-77.332,266.724,-70.313
0.233,1.610,-0.014,-49.805,301.941,-50.415
0.128,1.677,0.576,-19.775,321.777,-22.766
0.024,1.697,1.151,1.221,326.721,1.892
-0.121,1.647,1.634,12.024,320.557,21.118
-0.244,1.538,1.989,12.817,303.650,32.837
-0.333,1.440,2.210,4.089,271.667,38.757
-0.401,1.350,2.303,-8.301,229.919,40.894
-0.414,1.210,2.276,-21.484,185.730,39.063
-0.419,1.109,2.113,-35.828,138.794,34.790
-0.417,1.021,1.889,-49.683,94.482,29.602
0.407,1.275,3.778,-51.208,56.885,25.024
-1.871,-0.790,4.000,210.266,-39.734,10.254
-1.138,0.312,2.024,365.723,-134.583,46.631
-0.454,1.510,0.238,188.477,-136.597,92.529
0.230,0.496,-0.070,64.697,-123.474,73.242
-0.012,0.141,0.143,-32.227,-97.412,45.776
-0.232,0.339,0.082,-61.707,-81.665,11.475
-0.232,0.463,0.039,-49.194,-68.237,-17.090
-0.225,0.617,-0.201,-50.903,-44.739,-28.259
-0.186,0.643,-0.303,-37.048,2.808,-34.546
-0.351,0.793,-0.099,-28.748,30.212,-35.889
-0.359,0.968,0.019,-29.785,44.922,-35.889
-0.382,1.052,0.069,-44.189,48.462,-37.720
-0.411,1.096,0.124,-48.706,53.101,-36.560
-0.414,1.125,0.112,-41.504,58.838,-29.785
-0.434,1.095,0.181,-35.095,58.838,-19.043
-0.409,1.032,0.177,-35.645,50.049,-9.888
-0.423,0.936,0.160,-37.659,36.865,-7.263
-0.415,0.902,0.085,-35.522,22.339,-8.362
-0.426,0.917,0.028,-26.428,11.353,-9.460
-0.447,0.929,0.012,-12.268,3.479,-7.996
-0.439,0.947,0.040,0.366,-2.747,-3.479
-0.440,0.945,0.079,10.315,-9.705,2.319
-0.429,0.923,0.091,19.531,-16.846,8.179
-0.441,0.892,0.080,26.917,-19.958,12.085
-0.442,0.859,0.070,30.701,-20.752,14.038
-0.437,0.837,0.056,31.006,-18.372,14.099
-0.432,0.832,0.059,30.090,-13.000,12.939
-0.429,0.830,0.086,27.283,-7.568,9.949
-0.435,0.847,0.110,23.560,-3.296,6.409
-0.435,0.874,0.131,19.043,0.183,2.197
-0.438,0.894,0.163,11.780,1.953,-2.258
-0.440,0.913,0.149,1.465,0.977,-5.371
-0.442,0.930,0.133,-6.775,-1.709,-7.141
-0.439,0.943,0.117,-12.573,-3.845,-8.911
-0.436,0.957,0.119,-17.212,-4.456,-8.972
-0.426,0.952,0.085,-20.508,-5.127,-8.057
-0.427,0.955,0.078,-18.005,-4.272,-7.080
-0.435,0.963,0.079,-11.780,-3.235,-5.371
-0.442,0.967,0.074,-4.211,-3.540,-2.930
-0.435,0.968,0.063,2.502,-3.601,0.183
-0.434,0.963,0.068,7.935,-2.686,2.747
-0.442,0.958,0.074,11.414,-1.404,4.395
-0.450,0.950,0.081,13.550,0.366,5.859
-0.452,0.938,0.088,13.916,1.160,6.409
-0.457,0.937,0.092,11.414,0.610,6.104
-0.460,0.944,0.094,7.202,-0.488,5.249
-0.462,0.946,0.092,3.235,-1.587,4.211
-0.461,0.945,0.099,1.221,-3.052,3.418
-0.458,0.948,0.094,-0.305,-4.578,2.991
-0.447,0.943,0.076,-1.770,-5.981,3.235
-0.439,0.934,0.059,-1.526,-6.958,3.906
-0.431,0.926,0.051,-0.610,-6.836,3.967
-0.432,0.919,0.047,0.061,-5.798,4.272
-0.426,0.906,0.051,0.671,-4.211,4.822
-0.423,0.892,0.062,-0.122,-2.747,4.944
-0.413,0.883,0.065,-1.709,-1.221,4.517
-0.409,0.877,0.070,-2.991,-0.061,3.174
-0.406,0.872,0.084,-4.211,0.671,2.930
-0.404,0.879,0.091,-3.662,2.136,2.625
-0.416,0.878,0.100,-2.136,3.235,1.770
-0.420,0.887,0.099,-1.892,3.418,0.427
-0.424,0.896,0.082,-2.441,2.075,-0.671
-0.417,0.910,0.068,-3.479,-0.122,-1.526
-0.414,0.908,0.049,-4.761,-3.052,-2.258
-0.414,0.914,0.038,-5.859,-5.005,-2.563
-0.412,0.913,0.029,-4.822,-5.371,-1.831
-0.411,0.916,0.030,-3.174,-4.272,-1.099
