aX,aY,aZ,gX,gY,gZ
1.405,-0.085,1.493,147.522,510.803,-6.165
1.544,0.046,1.983,104.187,491.882,2.136
1.556,0.201,2.531,44.678,458.923,9.399
1.380,0.492,3.260,5.005,404.419,18.127
1.198,0.205,2.303,13.550,345.886,26.550
0.928,0.363,3.895,14.282,290.100,34.912
1.016,0.288,2.548,59.448,308.716,39.673
0.867,0.291,2.787,-0.122,213.379,44.373
0.965,0.153,2.751,-20.996,152.100,40.161
0.915,0.069,2.174,-12.390,143.860,31.128
0.802,-0.044,1.957,-30.029,111.877,25.085
0.731,-0.005,2.228,-41.016,87.952,20.264
0.664,-0.006,1.981,-40.588,86.243,11.841
0.588,0.005,1.943,-39.734,78.430,3.113
0.527,-0.037,1.749,-29.236,68.787,-3.540
0.505,-0.003,1.999,-27.588,50.659,-8.423
0.474,-0.011,1.571,-28.259,36.987,-17.456
0.387,-0.076,1.512,-27.710,31.982,-25.696
0.374,-0.072,1.330,-11.658,52.063,-28.076
0.391,-0.096,1.338,-3.052,52.307,-28.503
0.432,-0.083,1.350,5.066,52.368,-25.330
0.385,-0.060,1.338,10.925,52.002,-16.602
0.380,-0.027,1.348,14.343,48.950,-4.211
0.385,-0.018,1.384,17.090,42.664,4.211
0.363,-0.008,1.367,18.860,33.630,8.606
0.352,0.003,1.341,15.137,22.888,10.864
0.326,0.021,1.302,6.897,7.751,11.169
0.304,0.020,1.230,-1.831,-4.333,9.399
0.290,0.019,1.157,-10.498,-12.939,8.057
0.274,0.004,1.098,-17.456,-19.836,7.690
0.251,-0.008,1.041,-21.729,-23.804,7.935
0.239,-0.014,0.975,-25.330,-24.536,7.263
0.238,-0.023,0.875,-29.358,-23.682,4.578
0.230,-0.004,0.878,-35.583,-24.353,-0.610
0.187,0.037,1.020,-35.706,-22.522,-6.348
0.196,0.015,0.986,-28.320,-11.902,-10.010
0.208,0.019,0.990,-26.184,-7.568,-11.108
0.214,0.043,0.995,-24.292,-10.742,-12.146
0.223,0.058,0.987,-18.372,-15.137,-12.695
0.227,0.076,0.977,-11.536,-19.714,-12.329
0.245,0.091,0.937,-7.935,-23.071,-12.146
0.262,0.111,0.972,-7.385,-26.428,-12.085
0.277,0.110,0.956,-7.690,-20.020,-11.047
0.279,0.123,0.914,-13.489,-15.808,-9.766
0.284,0.131,0.922,-14.099,-16.602,-8.057
0.289,0.131,0.933,-12.512,-17.151,-6.470
0.288,0.125,0.927,-9.521,-15.442,-5.432
0.291,0.106,0.931,-5.737,-15.015,-3.662
0.301,0.068,0.858,-3.784,-17.517,-2.625
0.261,0.145,1.017,-6.836,-23.743,-2.869
0.250,0.100,0.945,-2.136,-23.621,-4.211
0.258,0.104,0.924,0.366,-18.921,-3.662
0.263,0.101,0.893,-3.418,-19.531,-3.723
0.258,0.094,0.858,-8.606,-19.836,-3.357
0.243,0.109,0.905,-14.160,-19.348,-3.296
0.243,0.092,0.864,-14.160,-15.747,-3.174
0.244,0.095,0.832,-12.512,-10.437,-2.197
0.237,0.102,0.847,-11.047,-6.958,-1.465
0.237,0.090,0.831,-8.240,-2.869,-0.916
0.233,0.077,0.826,-6.042,0.427,-0.122
0.227,0.087,0.856,-5.005,1.953,-0.183
0.226,0.096,0.863,-2.869,3.540,-1.099
0.230,0.110,0.877,-1.343,4.089,-1.648
0.233,0.127,0.917,-0.793,3.418,-1.648
0.242,0.126,0.904,-0.977,2.869,-1.709
0.240,0.129,0.918,-1.892,1.648,-1.282
0.237,0.118,0.913,-2.869,0.183,-1.099
0.238,0.117,0.922,-3.906,-1.282,-1.465
0.248,0.116,0.907,-2.930,-1.831,-1.953
0.251,0.120,0.907,-2.258,-1.282,-2.319
0.249,0.123,0.908,-2.502,-0.061,-2.686
0.247,0.121,0.910,-1.465,0.916,-2.258
0.247,0.122,0.915,0.427,1.343,-1.709
0.242,0.129,0.927,2.991,1.587,-1.221
0.243,0.128,0.946,4.944,1.770,-0.793
0.238,0.126,0.959,5.737,0.671,-0.427
0.229,0.125,0.962,5.615,-1.099,-0.427
0.229,0.126,0.962,5.249,-2.258,-0.183
0.220,0.118,0.963,3.906,-3.723,-0.305
0.220,0.119,0.966,1.831,-5.798,-0.366
0.226,0.123,0.955,-0.244,-7.202,-0.854
0.226,0.117,0.947,-1.465,-7.935,-1.404
0.225,0.124,0.937,-2.991,-8.301,-1.770
0.231,0.131,0.931,-3.601,-6.958,-1.221
0.224,0.123,0.929,-3.296,-5.798,-0.610
0.220,0.122,0.928,-2.319,-5.432,-0.122
0.214,0.120,0.921,-1.404,-5.310,0.122
0.214,0.119,0.918,-0.793,-4.822,0.000
0.208,0.117,0.909,-1.099,-4.211,-0.244
0.204,0.114,0.911,-1.038,-4.211,0.122
0.210,0.111,0.904,-1.221,-2.991,-0.061
0.209,0.110,0.899,-1.343,-2.991,-0.305
0.212,0.108,0.892,-1.526,-4.456,-0.427
0.216,0.107,0.884,-2.991,-5.493,-0.244
0.199,0.119,0.944,-4.700,-7.324,-0.610
0.202,0.110,0.914,-2.747,-5.066,-0.488
0.208,0.105,0.924,-2.380,-3.357,-0.488
0.195,0.111,0.940,-2.014,-4.150,-0.732
0.205,0.112,0.941,-2.014,-5.005,-1.221
0.208,0.120,0.935,-2.441,-5.615,-1.160
0.212,0.119,0.923,-3.723,-5.615,-1.526
0.214,0.120,0.917,-4.944,-5.615,-1.404
0.213,0.124,0.910,-6.531,-5.554,-1.526
0.212,0.126,0.899,-7.690,-5.737,-1.587
0.213,0.132,0.911,-8.972,-6.348,-1.526
0.208,0.132,0.909,-9.460,-6.836,-1.465
0.212,0.137,0.904,-9.277,-5.188,-1.709
0.212,0.137,0.905,-7.507,-3.662,-1.221
0.208,0.144,0.911,-6.531,-3.418,-0.977
0.203,0.140,0.924,-5.920,-3.235,-0.671
0.201,0.136,0.937,-5.310,-2.625,-0.427
0.201,0.142,0.940,-4.578,-2.625,-0.488
0.198,0.148,0.938,-3.296,-3.113,-0.671
0.203,0.149,0.932,-2.197,-3.357,-0.183
0.205,0.154,0.922,-2.380,-3.357,0.061
0.203,0.158,0.922,-3.723,-4.089,0.061
0.193,0.161,0.933,-4.211,-5.188,0.122
0.198,0.163,0.930,-3.845,-5.066,-0.061
0.200,0.159,0.924,-4.578,-5.188,-0.488

0.839,0.029,1.959,103.455,431.335,-32.715
0.745,0.169,2.141,36.011,397.278,-29.541
0.682,0.219,2.099,-19.836,360.657,-26.611
0.663,0.219,2.005,-50.171,324.890,-23.560
0.670,0.213,1.935,-64.087,291.748,-20.813
0.687,0.169,1.803,-56.885,268.250,-17.944
0.673,0.194,1.745,-35.583,251.587,-15.137
0.647,0.336,2.080,-7.141,235.718,-13.062
0.762,0.477,2.870,32.227,235.046,-12.207
0.858,0.370,1.623,87.646,270.874,-10.315
0.774,0.358,2.217,67.627,254.700,-11.414
0.775,0.361,2.412,28.748,224.609,-17.822
0.810,0.279,1.965,-35.950,208.496,-26.428
0.768,0.390,2.692,-96.985,180.298,-38.330
0.634,0.506,2.710,-53.162,181.763,-47.424
0.578,0.460,2.727,-0.488,205.505,-43.396
0.487,0.409,2.411,36.133,226.440,-24.841
0.548,0.341,2.053,51.697,222.656,-6.042
0.605,0.203,1.888,49.927,173.401,1.831
0.549,0.093,1.890,37.354,102.295,-0.183
0.518,0.050,1.938,17.273,48.950,-5.554
0.525,-0.000,1.770,10.498,26.306,-12.146
0.535,-0.015,1.611,13.062,22.278,-16.296
0.470,0.029,1.405,11.169,15.686,-13.794
0.389,0.108,1.256,-2.258,-1.709,-4.272
0.340,0.154,1.261,-14.038,-23.437,5.798
0.335,0.134,1.215,-17.639,-37.842,11.108
0.323,0.126,1.057,-16.479,-39.795,12.634
0.314,0.111,0.982,-16.174,-39.734,12.146
0.313,0.085,0.910,-12.573,-38.086,12.573
0.329,0.045,0.881,-7.874,-32.471,13.428
0.329,0.030,0.864,-3.662,-27.649,13.733
0.304,0.032,0.866,-2.625,-23.987,12.634
0.307,0.037,0.884,-3.479,-17.822,10.010
0.279,0.032,0.938,-3.845,-19.165,8.545
0.257,0.039,0.948,-3.967,-20.935,7.141
0.264,0.033,0.906,-5.066,-18.188,4.333
0.269,0.021,0.886,-7.202,-18.860,0.671
0.271,0.020,0.837,-8.728,-20.874,-1.160
0.263,0.025,0.787,-9.583,-22.095,-2.136
0.274,0.026,0.786,-11.597,-20.996,-3.052
0.288,0.025,0.775,-11.963,-18.738,-4.089
0.289,0.041,0.769,-9.521,-15.259,-4.700
0.284,0.070,0.784,-5.859,-10.925,-5.310
0.287,0.101,0.791,-2.380,-6.531,-5.249
0.303,0.127,0.792,-0.427,-2.258,-4.517
0.318,0.151,0.861,0.183,1.099,-3.113
0.316,0.167,0.894,2.747,5.066,-1.099
0.310,0.157,0.911,5.432,7.751,1.526
0.300,0.137,0.923,7.385,7.690,4.333
0.299,0.108,0.927,8.728,6.165,6.897
0.310,0.077,0.923,8.667,3.784,7.935
0.322,0.046,0.911,7.507,1.648,7.996
0.325,0.027,0.896,6.470,0.793,7.507
0.320,0.012,0.892,5.859,0.549,6.287
0.304,0.017,0.868,4.150,0.488,5.005
0.284,0.043,0.921,1.099,-1.160,3.540
0.274,0.060,0.924,1.404,-0.366,1.709
0.277,0.072,0.911,1.892,1.892,0.916
0.285,0.075,0.900,0.427,2.930,0.732
0.284,0.070,0.900,-0.305,3.967,0.610
0.282,0.061,0.904,-0.183,4.761,0.854
0.288,0.062,0.907,0.061,5.127,1.709
0.291,0.052,0.918,-0.427,5.005,1.404
0.292,0.060,0.918,-0.916,4.639,1.221
0.295,0.065,0.914,-0.854,4.333,0.732
0.294,0.069,0.912,-0.549,3.967,0.427
0.289,0.074,0.905,0.000,3.906,-0.061
0.287,0.077,0.885,1.404,4.150,0.122
0.277,0.079,0.894,2.441,4.211,0.366
0.276,0.069,0.893,4.211,5.249,0.488
0.281,0.074,0.893,6.042,5.798,0.427
0.291,0.079,0.882,7.568,5.676,-0.244
0.295,0.095,0.919,6.836,4.639,-1.770
0.297,0.099,0.911,6.165,3.845,-2.319
0.299,0.113,0.908,4.578,3.967,-2.625
0.310,0.105,0.911,3.357,4.578,-2.991
0.307,0.108,0.924,2.441,4.700,-2.869
0.304,0.112,0.933,1.587,4.028,-2.747
0.302,0.110,0.934,1.099,2.808,-2.502
0.304,0.100,0.922,1.404,1.526,-1.831
0.302,0.102,0.913,0.793,0.488,-1.526
0.301,0.101,0.904,0.061,-0.305,-1.465
0.301,0.098,0.898,-0.854,-0.610,-1.343
0.304,0.094,0.889,-1.343,-0.122,-1.099
0.303,0.082,0.884,-1.770,0.854,-1.038
0.302,0.064,0.888,-0.610,1.892,-0.610
0.294,0.059,0.893,1.282,2.930,0.061
0.293,0.060,0.890,2.930,3.906,0.488
0.288,0.061,0.898,4.028,4.272,0.305
0.286,0.070,0.905,4.395,4.517,0.366
0.286,0.078,0.906,3.113,4.944,-0.305
0.287,0.084,0.901,2.441,4.944,-0.183
0.288,0.088,0.901,2.136,4.883,0.000
0.290,0.085,0.906,2.136,5.005,0.183
0.292,0.083,0.900,1.587,5.493,0.427
0.303,0.077,0.896,0.854,6.226,0.366
0.309,0.075,0.896,0.488,7.202,0.000
0.311,0.065,0.908,1.099,8.362,-0.183
0.310,0.058,0.919,1.587,8.850,-0.854
0.310,0.070,0.931,1.892,8.301,-1.038
0.303,0.081,0.939,2.075,7.324,-0.732
0.318,0.071,0.935,2.991,6.348,-0.305
0.313,0.082,0.935,2.136,4.089,-0.732
0.305,0.076,0.936,2.014,2.625,-0.366
0.306,0.073,0.934,2.502,1.465,-0.122
0.307,0.081,0.927,2.441,-0.427,-0.427
0.307,0.087,0.912,1.160,-1.648,-0.793
0.313,0.090,0.905,-0.366,-2.075,-0.916
0.313,0.091,0.895,-1.831,-2.258,-1.038
0.320,0.091,0.879,-2.808,-2.075,-0.793
0.317,0.087,0.876,-2.869,-1.404,-0.244
0.320,0.085,0.873,-2.258,-0.366,0.183
0.319,0.079,0.877,-1.953,0.732,0.244
0.318,0.072,0.882,-1.526,1.892,0.488
0.319,0.080,0.880,-1.282,2.869,0.122
0.313,0.088,0.890,-0.244,3.845,-0.061
0.308,0.094,0.906,1.160,4.211,0.122
0.306,0.102,0.922,2.258,3.723,0.854

0.658,-0.762,-2.503,-89.417,-23.010,-58.899
0.810,-0.822,-2.990,-62.683,29.968,-88.440
0.993,-0.873,-3.273,-30.457,141.785,-118.469
1.252,-0.853,-3.226,-0.916,279.175,-142.212
1.625,-0.843,-2.955,31.067,413.208,-158.752
1.960,-0.909,-2.474,72.266,521.729,-167.297
2.153,-0.953,-1.927,123.535,601.868,-167.969
2.267,-0.994,-1.420,181.519,661.865,-164.612
2.408,-0.865,-0.847,239.502,703.491,-162.048
2.719,-0.524,-0.057,293.091,725.342,-161.316
2.933,-0.469,1.447,348.389,714.172,-152.832
2.675,-0.438,2.516,365.845,684.082,-107.971
2.449,-0.091,3.170,298.706,645.813,-52.246
2.287,0.362,4.000,217.529,607.117,-23.010
2.054,0.502,4.000,118.347,541.443,16.296
1.855,0.645,4.000,27.954,481.934,36.011
1.447,0.594,4.000,-38.452,401.062,66.040
0.900,0.542,4.000,-119.324,274.658,75.928
0.690,0.563,4.000,-169.861,157.349,58.655
0.480,0.249,4.000,-154.907,108.215,36.438
0.467,0.578,2.697,-101.074,134.888,31.372
0.229,0.427,2.605,-121.521,41.626,32.104
0.136,0.355,2.127,-132.202,-1.526,33.325
0.011,0.291,1.769,-143.433,-22.095,31.433
-0.118,0.268,1.875,-143.250,-26.794,29.053
-0.159,0.044,1.628,-112.305,-0.549,23.071
-0.179,-0.064,1.247,-68.909,35.522,21.362
-0.194,-0.149,1.174,-59.875,39.490,16.113
-0.201,-0.224,1.104,-54.871,36.255,11.597
-0.208,-0.258,1.006,-34.424,35.278,8.545
-0.170,-0.237,0.854,-15.503,30.762,3.845
-0.072,-0.158,0.836,-1.099,17.822,-2.136
-0.114,-0.210,0.877,14.587,-1.404,-10.742
0.017,-0.041,0.917,13.306,6.470,-20.508
0.118,0.130,0.916,23.621,20.630,-23.132
0.136,0.169,0.731,42.786,31.128,-29.785
0.141,0.278,0.745,36.316,19.043,-32.837
0.182,0.337,0.916,28.870,-1.709,-34.119
0.232,0.367,1.039,36.194,-2.808,-31.189
0.245,0.377,0.981,41.931,4.761,-26.306
0.226,0.396,0.934,37.781,8.545,-19.592
0.217,0.346,0.871,25.391,5.432,-13.489
0.255,0.316,0.869,8.728,-3.235,-6.042
0.260,0.266,0.804,-7.568,-20.630,-2.686
0.303,0.229,0.773,-28.992,-46.936,-2.197
0.308,0.226,0.757,-50.110,-88.257,-2.869
0.223,0.190,0.845,-60.425,-125.671,-9.216
0.099,0.211,0.854,-79.834,-131.104,-18.921
0.089,0.223,0.969,-87.341,-89.355,-28.015
0.111,0.204,1.003,-57.434,-38.940,-30.701
0.112,0.247,0.981,-20.935,-3.967,-28.809
0.103,0.294,1.030,1.526,16.602,-26.245
0.073,0.374,1.117,11.414,24.963,-21.545
0.071,0.404,1.139,15.747,33.081,-16.846
0.056,0.384,1.115,18.555,35.095,-9.888
0.069,0.354,1.031,14.709,33.508,-4.639
0.094,0.323,0.973,2.991,27.100,-2.502
0.106,0.267,0.926,-7.629,18.616,-2.136
0.122,0.220,0.890,-14.709,15.320,-1.953
0.134,0.192,0.861,-18.127,14.160,-1.709
0.128,0.164,0.873,-14.099,14.099,-0.549
0.138,0.180,0.906,-4.822,18.982,0.977
0.144,0.213,0.948,6.775,25.024,3.052
0.142,0.220,0.908,14.648,28.320,3.601
0.124,0.294,0.990,13.855,27.832,2.197
0.126,0.289,0.984,7.996,23.987,-1.465
0.146,0.289,0.933,1.892,17.639,-2.991
0.129,0.276,0.938,-4.333,5.920,-4.700
0.140,0.248,0.909,-7.080,0.671,-5.310
0.152,0.253,0.875,-7.507,-0.854,-4.578
0.162,0.244,0.887,-8.362,-2.258,-4.517
0.148,0.242,0.924,-9.460,-1.648,-5.066
0.157,0.249,0.913,-7.874,1.648,-4.456
0.159,0.253,0.925,-7.141,4.761,-4.211
0.157,0.263,0.932,-7.202,6.653,-4.395
0.155,0.275,0.940,-4.272,8.423,-4.089
0.158,0.283,0.925,-0.488,9.277,-3.174
0.158,0.288,0.929,1.648,8.911,-2.808
0.150,0.283,0.931,2.502,7.568,-2.075
0.142,0.267,0.938,1.160,5.432,-1.404
0.149,0.255,0.925,-0.427,2.625,-1.221
0.145,0.242,0.931,-2.625,0.427,-1.831
0.139,0.231,0.923,-4.028,0.000,-3.113
0.140,0.232,0.895,-2.991,0.977,-4.150
0.148,0.240,0.888,-0.549,1.709,-4.333
0.175,0.253,0.884,2.136,2.625,-4.700
0.170,0.266,0.912,4.944,4.150,-4.822
0.157,0.277,0.924,7.446,6.775,-4.272
0.148,0.277,0.922,8.606,9.216,-3.357
0.136,0.279,0.926,7.263,10.498,-2.808
0.127,0.275,0.934,5.371,10.620,-1.831
0.122,0.261,0.937,2.930,10.071,-1.221
0.117,0.257,0.946,0.977,8.728,-0.732
0.113,0.250,0.947,-0.671,6.653,-0.122
0.117,0.238,0.956,-3.174,3.052,-0.183
0.127,0.240,0.946,-7.019,-0.183,-0.549
0.124,0.250,0.942,-9.155,-2.258,-0.610
0.124,0.248,0.922,-8.484,-2.258,-1.221
0.131,0.250,0.888,-7.568,-1.221,-1.709
0.141,0.247,0.879,-7.141,-0.916,-1.953
0.146,0.248,0.897,-6.226,-0.793,-2.258
0.152,0.248,0.901,-3.723,0.977,-2.319
0.159,0.254,0.908,-0.610,2.747,-1.648
0.150,0.255,0.934,0.854,2.808,-1.160
0.141,0.252,0.958,1.465,2.441,-0.916
0.138,0.254,0.961,1.831,1.526,-0.244
0.139,0.250,0.950,1.404,-0.305,0.244
0.138,0.244,0.939,-0.061,-2.075,0.061
0.140,0.238,0.921,-1.099,-2.991,0.427
0.148,0.238,0.902,-2.625,-3.479,0.244
0.148,0.228,0.891,-4.211,-3.296,-0.366
0.148,0.237,0.886,-6.287,-2.930,-1.343
0.152,0.233,0.876,-7.812,-2.258,-2.258
0.155,0.235,0.876,-9.094,-1.526,-2.869
0.163,0.244,0.893,-9.155,-0.732,-3.052
0.148,0.250,0.886,-8.606,-1.587,-3.235
0.133,0.262,0.933,-8.972,-2.869,-3.540
0.138,0.273,0.926,-7.263,-0.793,-3.540
0.141,0.281,0.918,-5.432,-0.488,-3.296

0.493,-0.383,-1.651,12.939,190.735,-150.879
0.664,-0.298,-1.546,35.339,236.633,-159.485
0.856,-0.299,-1.414,51.758,278.503,-160.706
1.010,-0.386,-1.311,61.157,315.613,-154.480
1.088,-0.476,-1.283,67.322,347.107,-140.503
1.125,-0.585,-1.230,76.416,371.094,-125.793
1.150,-0.706,-1.184,89.539,392.456,-116.882
1.219,-0.748,-1.079,107.178,415.466,-116.882
1.339,-0.638,-0.884,128.723,444.031,-125.916
1.429,-0.485,-0.489,149.597,474.548,-143.982
1.671,-0.319,0.058,162.537,509.521,-162.598
1.811,-0.094,0.752,171.875,542.236,-170.776
1.976,0.238,1.360,188.721,562.683,-163.696
2.264,0.566,2.060,217.834,561.707,-143.250
2.150,0.963,3.504,208.923,521.973,-102.112
1.485,1.272,4.000,152.283,472.107,-41.687
1.029,1.269,4.000,120.239,435.974,11.780
0.864,0.918,4.000,46.021,372.192,38.452
0.860,0.667,3.815,-30.334,291.382,33.508
0.899,0.591,3.500,-84.778,224.121,16.479
0.825,0.212,2.304,-81.543,220.825,0.427
1.013,0.797,1.182,-135.742,139.282,7.751
-0.398,1.093,4.000,-218.201,-124.084,1.160
0.443,0.731,2.876,17.090,146.545,-5.676
0.439,0.914,1.746,42.236,285.645,-0.366
0.311,0.838,2.190,-41.992,185.669,-14.282
0.322,0.718,2.446,-96.680,90.027,-29.968
0.282,0.669,2.208,-107.361,78.979,-38.269
0.266,0.661,1.916,-88.745,86.304,-37.476
0.249,0.593,1.628,-60.974,85.571,-32.959
0.275,0.546,1.513,-32.898,81.848,-27.039
0.289,0.442,1.441,-5.188,77.148,-21.912
0.313,0.354,1.326,14.954,74.768,-19.226
0.326,0.274,1.118,26.306,68.420,-17.090
0.281,0.187,1.140,26.428,53.711,-13.794
0.249,0.130,1.156,28.442,46.021,-9.766
0.204,0.035,0.990,29.480,40.894,-6.592
0.177,0.016,1.098,27.832,32.349,-4.578
0.172,-0.053,0.920,30.579,23.926,-4.333
0.221,-0.078,0.775,30.273,3.296,-5.615
0.206,-0.054,0.799,18.738,-43.030,-11.536
0.219,0.003,0.890,-0.854,-96.741,-19.958
0.162,0.115,1.081,-22.278,-125.549,-26.917
0.203,0.196,1.096,-34.546,-103.638,-31.616
0.256,0.247,1.090,-27.954,-62.866,-32.104
0.276,0.280,0.943,-23.193,-44.678,-29.541
0.232,0.338,0.959,-32.410,-45.288,-25.330
0.234,0.412,1.035,-44.800,-42.847,-20.325
0.226,0.475,1.073,-47.058,-33.203,-16.113
0.222,0.486,1.030,-37.109,-17.639,-12.024
0.218,0.509,0.962,-32.410,-8.179,-8.484
0.233,0.475,0.916,-34.607,-5.615,-7.080
0.239,0.424,0.891,-36.438,-8.240,-6.653
0.250,0.409,0.883,-36.438,-11.658,-6.531
0.246,0.399,0.898,-32.593,-14.526,-6.287
0.233,0.409,0.908,-24.292,-14.771,-4.883
0.225,0.412,0.912,-15.259,-10.498,-3.540
0.225,0.419,0.908,-8.179,-3.479,-2.441
0.227,0.421,0.876,-3.784,2.441,-1.526
0.201,0.416,0.862,-2.380,5.066,-0.732
0.188,0.394,0.856,-3.845,7.202,-0.427
0.185,0.355,0.851,-4.639,10.132,0.488
0.167,0.312,0.828,-4.883,9.033,1.770
0.157,0.286,0.872,-5.188,5.371,2.625
0.166,0.273,0.870,-4.883,4.333,2.441
0.166,0.276,0.895,-4.089,1.892,2.075
0.184,0.275,0.900,-3.113,-0.122,1.343
0.177,0.297,0.886,-2.075,-2.197,0.977
0.171,0.318,0.868,-0.977,-2.686,0.366
0.198,0.341,0.856,-0.732,-2.563,0.732
0.192,0.347,0.891,-1.709,-4.333,0.549
0.190,0.339,0.891,-1.099,-3.723,0.610
0.192,0.329,0.892,1.587,-1.770,2.136
0.190,0.319,0.898,4.517,-0.610,3.296
0.179,0.306,0.916,5.981,-0.183,3.845
0.160,0.311,0.928,7.324,-0.488,4.761
0.152,0.318,0.930,8.789,-1.709,5.676
0.147,0.333,0.947,7.629,-4.089,5.493
0.143,0.328,0.938,5.737,-5.920,4.883
0.146,0.322,0.923,2.136,-6.470,3.784
0.148,0.323,0.903,-1.099,-6.653,2.075
0.156,0.318,0.881,-2.319,-6.592,1.221
0.158,0.322,0.873,-2.808,-6.165,1.404
0.160,0.327,0.869,-2.441,-5.249,1.404
0.158,0.337,0.879,-1.404,-5.005,1.953
0.156,0.342,0.882,-0.488,-4.517,2.441
0.156,0.342,0.869,-0.366,-3.906,2.808
0.155,0.339,0.906,-1.343,-4.578,2.869
0.163,0.340,0.892,-2.136,-3.723,2.197
0.145,0.340,0.883,-3.235,-2.441,1.404
0.188,0.329,0.888,-3.235,-0.244,1.160
0.174,0.325,0.884,-3.723,-2.441,0.916
0.165,0.319,0.901,-4.089,-3.113,1.099
0.178,0.306,0.860,-1.892,-1.953,1.892
0.172,0.305,0.859,-0.671,-3.784,2.502
0.166,0.313,0.864,-0.732,-6.165,2.319
0.168,0.316,0.845,-0.732,-6.409,2.441
0.168,0.313,0.844,-0.793,-5.615,2.136
0.155,0.318,0.861,-1.343,-6.653,2.075
0.159,0.308,0.858,-1.160,-6.165,2.075
0.151,0.315,0.848,0.305,-5.066,1.953
0.148,0.328,0.867,1.587,-5.798,2.258
0.146,0.333,0.888,1.465,-5.310,1.953
0.155,0.331,0.849,0.061,-2.380,0.916
0.151,0.323,0.842,-2.014,-2.686,-0.061
0.147,0.333,0.870,-3.723,-5.066,-1.038
0.147,0.330,0.856,-4.333,-4.395,-2.075
0.154,0.342,0.839,-3.235,-2.808,-1.892
0.143,0.364,0.891,-1.587,-5.188,-0.549
0.151,0.371,0.872,0.061,-5.493,0.854
0.144,0.376,0.852,0.183,-4.456,1.587
0.141,0.377,0.893,-0.977,-4.517,1.526
0.143,0.374,0.885,-1.587,-4.456,0.916
0.145,0.370,0.879,-2.197,-5.554,1.038
0.140,0.361,0.874,-2.808,-5.615,0.732
0.140,0.356,0.886,-2.380,-3.662,0.671
0.149,0.353,0.857,-1.404,-2.686,0.610
0.140,0.355,0.868,-1.892,-3.784,0.366
0.139,0.348,0.859,-2.563,-3.235,-0.305

0.240,-0.881,-1.803,-62.988,26.245,-57.373
0.331,-0.908,-1.937,-26.306,59.570,-73.242
0.465,-0.876,-1.956,10.742,103.455,-95.642
0.637,-0.789,-1.836,43.274,161.987,-121.399
0.828,-0.691,-1.672,69.092,225.708,-143.921
0.962,-0.596,-1.469,85.632,281.799,-162.903
1.066,-0.496,-1.250,97.290,332.458,-175.476
1.186,-0.470,-0.976,115.051,374.023,-178.833
1.225,-0.440,-0.734,132.751,408.691,-171.692
1.258,-0.425,-0.419,151.367,435.303,-156.860
1.237,-0.391,-0.061,176.453,451.111,-139.038
1.192,-0.317,0.275,200.256,464.722,-121.887
1.171,-0.291,0.546,205.627,478.821,-111.206
1.231,-0.118,0.760,183.350,492.554,-108.948
1.271,0.170,1.171,147.583,502.808,-115.112
1.214,0.436,1.657,119.873,504.028,-117.554
0.864,0.922,2.822,25.635,457.275,-107.117
0.678,1.067,3.043,-40.710,416.565,-101.074
0.602,1.137,2.984,-91.858,371.033,-96.741
0.591,1.233,2.992,-91.370,326.538,-83.618
0.559,1.264,3.092,-34.058,292.908,-59.631
0.433,1.194,3.275,37.048,283.386,-31.433
0.316,1.056,3.105,85.022,291.748,-8.484
0.260,0.936,2.915,92.102,291.748,-0.427
0.238,0.820,2.722,66.223,278.442,-5.493
0.239,0.760,2.651,26.489,262.817,-19.836
0.159,0.482,2.058,-1.709,281.494,-39.063
0.434,0.693,1.378,-44.189,285.400,-50.842
0.202,0.607,2.162,-70.740,177.795,-64.514
0.335,0.462,1.908,-51.147,162.476,-69.885
0.413,0.486,1.884,-33.936,173.279,-69.092
0.374,0.490,1.863,-13.977,170.227,-62.378
0.388,0.494,2.005,1.526,158.569,-50.903
0.413,0.541,1.949,8.484,146.423,-40.710
0.410,0.571,1.914,0.183,127.869,-31.189
0.362,0.520,1.812,-14.648,94.849,-24.597
0.369,0.495,1.648,-32.776,59.570,-20.813
0.415,0.409,1.476,-41.626,22.034,-18.860
0.404,0.313,1.329,-42.419,-10.376,-15.930
0.429,0.250,1.211,-38.208,-23.865,-12.146
0.439,0.206,0.855,-25.757,-28.564,-6.165
0.383,0.193,0.848,-11.353,-46.570,1.038
0.345,0.180,1.017,1.221,-63.293,4.333
0.336,0.177,1.106,9.399,-57.495,1.953
0.343,0.194,0.984,11.902,-39.246,-2.502
0.318,0.206,1.025,7.935,-37.109,-7.996
0.305,0.232,1.009,1.709,-49.316,-14.099
0.202,0.224,1.076,-3.601,-66.467,-18.616
0.125,0.243,1.140,-8.545,-69.946,-19.165
0.137,0.284,1.105,-13.916,-56.152,-16.174
0.179,0.331,1.075,-9.705,-39.429,-8.972
0.221,0.352,1.036,-5.737,-29.663,-2.625
0.234,0.352,0.953,-6.409,-22.949,0.610
0.250,0.324,0.881,-13.489,-15.747,0.183
0.254,0.280,0.829,-22.400,-11.169,-1.526
0.276,0.286,0.805,-30.212,-8.972,-3.418
0.248,0.289,0.822,-33.081,-6.226,-6.165
0.241,0.315,0.775,-31.128,-3.906,-7.874
0.196,0.354,0.858,-27.161,-2.625,-7.812
0.197,0.350,0.838,-18.738,1.221,-7.141
0.214,0.397,0.822,-18.799,-1.160,-5.066
0.196,0.418,0.937,-23.437,-10.315,-4.456
0.192,0.389,0.861,-21.667,-8.057,-3.662
0.210,0.375,0.814,-19.714,-2.930,-2.258
0.205,0.355,0.797,-20.447,-3.784,-2.563
0.232,0.349,0.799,-18.921,-2.625,-3.601
0.220,0.359,0.796,-12.573,-5.432,-3.784
0.211,0.376,0.821,-7.324,-6.104,-4.395
0.214,0.389,0.813,-4.456,-3.418,-4.822
0.208,0.391,0.823,-4.517,-1.770,-5.371
0.198,0.387,0.846,-6.653,-0.122,-6.287
0.191,0.376,0.833,-8.789,1.587,-7.080
0.190,0.372,0.883,-9.949,1.404,-6.897
0.187,0.373,0.839,-8.850,0.977,-5.981
0.183,0.372,0.883,-7.507,-2.869,-3.845
0.193,0.374,0.874,-5.127,-6.104,-1.282
0.197,0.365,0.850,-2.197,-8.362,1.343
0.191,0.361,0.880,-0.183,-10.803,2.869
0.201,0.365,0.826,2.197,-10.193,3.357
0.202,0.369,0.826,1.465,-10.071,2.197
0.194,0.370,0.835,-0.549,-9.521,0.732
0.192,0.372,0.834,-1.709,-6.470,-0.244
0.186,0.371,0.839,-2.258,-2.869,-0.610
0.179,0.370,0.849,-2.197,0.244,-0.671
0.172,0.367,0.871,-1.709,1.953,-0.427
0.178,0.371,0.883,-1.709,2.075,-0.061
0.161,0.362,0.891,-1.099,0.671,0.977
0.149,0.365,0.925,0.427,-2.258,3.845
0.160,0.376,0.895,0.488,-6.653,5.737
0.164,0.371,0.882,-1.465,-12.085,5.737
0.158,0.360,0.881,-3.784,-14.893,4.944
0.158,0.350,0.864,-7.202,-15.503,2.625
0.160,0.358,0.850,-9.827,-14.221,0.427
0.166,0.360,0.834,-10.498,-11.597,-1.038
0.171,0.357,0.830,-9.705,-7.935,-1.892
0.168,0.363,0.836,-7.935,-3.479,-2.075
0.169,0.361,0.842,-5.066,0.366,-1.831
0.167,0.363,0.855,-2.625,3.174,-1.587
0.163,0.367,0.861,0.244,5.310,-0.793
0.159,0.369,0.857,3.601,6.104,0.549
0.158,0.371,0.863,4.639,5.066,1.343
0.158,0.374,0.859,3.235,1.892,1.709
0.158,0.366,0.868,0.854,-1.831,1.770
0.160,0.359,0.893,-0.305,-3.479,1.831
0.173,0.352,0.834,1.648,-1.587,1.709
0.178,0.354,0.821,2.197,-2.380,1.648
0.176,0.354,0.861,2.136,-3.906,1.648
0.183,0.353,0.833,3.235,-1.465,1.587
0.177,0.360,0.865,2.502,-0.916,1.831
0.177,0.357,0.863,1.831,0.305,1.038
0.174,0.352,0.874,0.366,1.282,-0.183
0.173,0.347,0.865,-0.549,2.197,-1.160
0.166,0.349,0.858,-0.916,2.869,-1.648
0.172,0.348,0.874,-0.427,3.113,-1.770
0.173,0.354,0.851,1.099,3.723,-1.404
0.169,0.354,0.858,1.160,3.845,-1.099
0.165,0.348,0.859,0.427,3.723,-1.099
0.162,0.350,0.856,-0.610,3.601,-1.465
0.163,0.347,0.849,-1.221,3.296,-2.014

0.407,-0.805,-1.782,-68.115,20.935,-98.938
0.649,-0.765,-1.960,-53.894,47.485,-119.385
0.806,-0.732,-2.057,-28.198,82.336,-141.724
0.978,-0.701,-2.120,-0.977,136.658,-164.062
1.163,-0.688,-2.050,23.071,198.730,-180.603
1.317,-0.716,-1.814,53.223,254.272,-187.134
1.468,-0.769,-1.564,93.750,299.072,-181.396
1.521,-0.885,-1.233,140.076,326.172,-169.006
1.541,-0.995,-0.786,187.073,344.543,-153.381
1.411,-1.000,-0.208,214.233,385.620,-139.343
1.514,-0.838,0.081,221.069,472.412,-132.263
1.487,-0.572,0.587,242.432,520.752,-134.216
1.385,-0.200,1.097,239.014,529.663,-141.724
1.435,0.230,1.550,203.613,533.447,-157.227
1.612,0.633,2.235,165.039,534.241,-174.622
1.610,1.250,3.122,121.460,528.564,-180.481
0.957,1.670,4.000,53.955,496.948,-158.386
0.333,1.601,4.000,0.610,441.528,-105.896
0.224,1.131,3.765,-16.785,367.554,-49.194
0.297,0.717,3.073,-19.287,281.677,-12.756
0.409,0.504,2.500,-19.836,212.891,-2.075
0.519,0.430,2.186,-5.981,185.852,-10.681
0.558,0.424,2.028,16.907,193.481,-28.503
0.565,0.550,2.050,37.231,212.891,-45.349
0.324,0.531,2.973,55.481,245.056,-62.683
0.672,0.949,1.575,35.706,278.687,-74.036
0.394,0.892,2.826,-45.898,202.576,-95.032
0.534,0.966,2.425,-35.645,228.088,-116.394
0.531,1.063,2.353,-70.923,233.154,-130.554
0.335,1.695,2.655,-106.567,216.309,-137.878
-0.515,2.083,4.000,-77.942,215.149,-138.733
0.010,1.800,4.000,82.703,292.419,-66.284
0.488,1.462,2.906,230.774,294.739,58.838
0.509,1.498,1.479,87.280,131.226,106.873
0.316,1.190,1.383,-29.541,-39.429,78.552
0.531,0.917,1.370,-139.648,-83.679,21.912
0.393,0.653,2.051,-231.812,-52.979,-36.377
0.378,0.132,1.373,-241.028,26.917,-69.092
0.255,-0.132,0.714,-183.594,76.660,-41.687
0.068,-0.350,0.569,-85.938,52.551,14.160
0.011,-0.516,0.468,22.583,10.193,62.378
0.084,-0.577,0.296,74.402,-32.593,84.167
0.158,-0.472,0.430,80.750,-61.096,79.041
0.208,-0.307,0.519,63.232,-69.519,53.345
0.163,-0.180,0.971,41.260,-59.692,16.846
0.306,-0.113,0.694,30.212,-28.381,-14.954
0.317,0.052,0.806,12.756,-27.893,-36.926
0.307,0.163,0.864,7.629,-51.819,-51.086
0.323,0.284,0.824,10.864,-80.872,-54.443
0.219,0.477,0.942,8.057,-101.746,-50.781
0.170,0.536,1.038,11.230,-85.571,-41.626
0.211,0.587,0.951,9.583,-46.692,-29.297
0.294,0.654,0.896,2.014,-24.658,-17.090
0.284,0.646,0.962,-1.587,-22.888,-6.042
0.270,0.633,1.023,0.305,-14.404,-1.892
0.320,0.552,0.782,0.549,0.244,-2.502
0.282,0.552,0.909,-1.404,5.127,-3.906
0.270,0.524,0.961,-1.587,9.094,-5.005
0.249,0.490,0.933,0.916,18.066,-5.371
0.223,0.463,0.883,4.089,23.193,-4.517
0.202,0.462,1.011,3.845,21.545,-3.113
0.193,0.429,0.931,5.981,20.264,-0.488
0.190,0.422,0.931,3.357,14.893,3.235
0.170,0.410,0.925,-6.897,7.324,3.784
0.193,0.374,0.945,-16.785,11.902,0.244
0.214,0.365,0.823,-21.790,15.991,-2.563
0.221,0.352,0.770,-25.085,11.230,-4.272
0.216,0.353,0.781,-24.719,3.479,-5.615
0.219,0.364,0.771,-20.691,-2.747,-5.493
0.215,0.360,0.740,-14.648,-5.005,-4.944
0.197,0.365,0.771,-7.812,-6.042,-3.296
0.198,0.365,0.755,-1.282,-5.066,-1.526
0.188,0.373,0.773,2.319,-5.066,0.366
0.180,0.394,0.828,2.930,-5.066,1.099
0.176,0.364,0.805,3.296,-4.272,1.282
0.159,0.392,0.851,2.808,-3.540,1.404
0.165,0.376,0.842,-0.244,-5.493,0.610
0.153,0.411,0.920,-3.479,-5.920,0.488
0.155,0.397,0.883,-4.883,-4.761,1.099
0.162,0.373,0.836,-5.371,-2.014,2.197
0.159,0.348,0.829,-6.348,-2.686,3.967
0.163,0.336,0.820,-5.981,-3.784,5.798
0.164,0.318,0.817,-4.028,-3.418,6.775
0.159,0.306,0.818,-1.160,-2.686,7.629
0.151,0.310,0.827,2.197,-2.258,8.240
0.148,0.329,0.856,4.578,-1.648,7.385
0.158,0.343,0.855,6.165,-0.061,6.165
0.158,0.356,0.865,4.456,0.977,4.639
0.159,0.366,0.893,0.244,0.061,2.747
0.160,0.374,0.911,-3.174,-1.709,1.160
0.166,0.380,0.911,-5.737,-3.784,0.244
0.174,0.386,0.913,-7.324,-5.981,-0.366
0.179,0.397,0.916,-6.653,-7.202,-0.549
0.178,0.407,0.874,-4.333,-6.165,-0.549
0.160,0.417,0.861,-2.563,-5.859,-0.244
0.151,0.423,0.871,-2.380,-6.287,-0.366
0.159,0.411,0.831,-2.258,-5.676,-0.427
0.157,0.410,0.821,-2.136,-4.883,0.183
0.162,0.391,0.808,-1.221,-4.822,1.282
0.147,0.393,0.873,-1.038,-4.639,1.343
0.150,0.387,0.842,0.122,-2.930,0.977
0.149,0.401,0.854,0.977,-2.380,0.793
0.156,0.403,0.854,-0.732,-3.357,0.061
0.161,0.410,0.860,-3.601,-4.089,-1.282
0.160,0.410,0.857,-5.005,-4.333,-1.648
0.160,0.417,0.864,-5.127,-4.639,-1.770
0.166,0.415,0.847,-3.723,-5.005,-0.610
0.172,0.405,0.840,-1.831,-5.371,1.465
0.175,0.403,0.849,-1.221,-5.249,3.540
0.167,0.399,0.850,-0.488,-4.456,4.456
0.161,0.397,0.855,0.854,-3.967,5.249
0.162,0.403,0.846,0.610,-2.991,5.432
0.160,0.400,0.841,-0.549,-2.319,4.761
0.155,0.400,0.842,-1.831,-1.709,3.662
0.149,0.391,0.847,-2.319,-0.488,3.174
0.144,0.380,0.849,-2.319,0.061,2.930
0.138,0.376,0.854,-1.282,0.061,3.052
0.139,0.377,0.853,-0.488,-0.854,2.991
0.141,0.384,0.848,-0.122,-1.770,2.625

0.553,-0.939,-1.622,-31.860,85.205,-147.949
0.749,-0.894,-1.654,-12.146,117.310,-172.607
0.935,-0.818,-1.645,12.695,160.583,-196.289
1.078,-0.706,-1.547,35.645,207.275,-214.294
1.186,-0.642,-1.378,60.242,253.357,-225.769
1.263,-0.609,-1.181,83.740,299.377,-229.858
1.277,-0.565,-0.902,108.459,340.088,-225.403
1.306,-0.525,-0.555,139.771,369.995,-213.257
1.319,-0.504,-0.141,174.194,394.226,-200.500
1.232,-0.365,0.241,201.355,410.461,-191.528
1.193,-0.230,0.608,208.130,418.579,-188.843
1.127,-0.034,0.819,186.707,427.795,-196.716
1.113,0.272,0.951,149.780,438.538,-214.355
1.164,0.581,1.277,111.633,439.453,-234.741
1.178,0.892,1.814,76.355,434.082,-248.962
1.089,1.144,2.260,37.598,422.485,-246.582
0.989,1.459,2.690,7.996,396.301,-224.060
0.852,1.707,3.067,24.902,363.586,-189.575
0.722,1.780,3.297,71.899,336.792,-144.714
0.557,1.672,3.203,104.614,315.308,-96.985
0.468,1.489,2.988,88.684,287.720,-60.364
0.430,1.242,2.741,69.641,249.817,-38.147
0.447,1.037,2.516,57.983,228.394,-26.428
0.472,0.896,2.320,51.514,223.267,-22.949
0.468,0.824,2.319,48.828,222.900,-21.423
0.464,0.781,2.221,45.776,227.539,-21.851
0.524,0.581,1.302,29.114,237.305,-30.273
0.483,0.861,2.145,-20.508,222.900,-43.945
0.444,0.788,2.157,-49.622,182.800,-65.735
0.466,0.721,2.026,-78.430,179.138,-91.248
0.452,0.671,1.775,-95.459,168.823,-117.981
0.428,0.657,1.799,-91.736,147.766,-138.123
0.552,0.744,1.794,-70.618,132.324,-146.667
0.245,1.473,2.831,-30.701,121.338,-149.109
0.213,1.483,2.184,69.214,128.784,-121.643
0.299,1.808,1.916,104.736,85.022,-32.227
0.357,1.408,1.829,95.398,20.630,29.175
0.350,1.002,1.474,38.269,2.686,47.058
0.344,0.490,1.214,-34.851,1.343,33.020
0.303,0.119,1.005,-81.177,2.380,10.071
0.295,-0.148,0.861,-89.905,0.061,-4.761
0.311,-0.248,0.703,-66.833,-12.756,-11.902
0.335,-0.149,0.897,-30.640,-29.846,-13.916
0.380,-0.011,0.943,7.690,-30.518,-14.526
0.429,0.183,0.917,31.860,-16.479,-16.052
0.490,0.297,0.858,20.142,-14.404,-21.851
0.464,0.366,0.994,-4.211,-22.461,-27.710
0.475,0.344,0.923,-22.705,-18.311,-30.029
0.495,0.310,0.777,-32.349,-9.460,-28.076
0.490,0.289,0.712,-30.823,-7.629,-22.461
0.492,0.299,0.657,-19.348,-5.981,-15.747
0.489,0.339,0.675,-5.371,-3.357,-11.169
0.486,0.388,0.643,5.554,0.122,-9.766
0.459,0.454,0.693,7.690,0.610,-12.146
0.475,0.485,0.629,2.991,-1.465,-15.320
0.464,0.557,0.798,-10.986,-7.019,-17.395
0.425,0.561,0.901,-23.193,-6.409,-18.982
0.403,0.500,0.746,-24.780,0.854,-18.005
0.361,0.479,0.800,-25.635,-1.221,-13.367
0.350,0.455,0.787,-24.902,-7.568,-8.423
0.343,0.452,0.755,-20.020,-11.719,-4.578
0.353,0.466,0.725,-15.015,-13.123,-2.869
0.353,0.498,0.711,-13.733,-13.977,-3.601
0.352,0.510,0.707,-16.235,-13.428,-6.775
0.337,0.538,0.736,-19.226,-11.902,-9.827
0.336,0.558,0.732,-19.653,-9.216,-11.719
0.331,0.574,0.762,-17.090,-7.507,-11.353
0.336,0.563,0.755,-13.916,-6.531,-9.033
0.332,0.539,0.795,-11.780,-5.615,-5.798
0.337,0.497,0.768,-8.545,-4.028,-3.113
0.325,0.488,0.799,-3.235,-3.113,0.000
0.339,0.466,0.775,1.892,-2.930,2.502
0.338,0.467,0.788,5.188,-2.869,4.272
0.323,0.458,0.811,6.165,-2.319,5.066
0.343,0.428,0.698,5.066,-2.136,6.104
0.317,0.424,0.783,0.305,-5.798,6.531
0.315,0.411,0.761,-0.427,-6.104,6.653
0.318,0.410,0.737,-1.282,-5.859,5.859
0.318,0.411,0.752,-2.380,-6.409,3.967
0.326,0.410,0.719,-1.892,-4.517,2.258
0.327,0.436,0.726,-0.671,-2.441,1.770
0.332,0.465,0.703,1.282,-0.854,1.404
0.331,0.488,0.716,3.784,-1.038,2.441
0.323,0.515,0.776,5.249,-0.916,4.028
0.313,0.523,0.817,5.859,-0.488,6.104
0.302,0.514,0.848,4.944,1.038,7.385
0.308,0.491,0.837,2.258,2.380,7.629
0.300,0.466,0.846,-0.671,2.136,6.958
0.298,0.442,0.819,-1.404,1.831,6.287
0.305,0.432,0.795,-1.038,1.465,5.737
0.310,0.430,0.776,0.122,0.854,5.615
0.301,0.414,0.764,2.502,0.977,6.042
0.333,0.425,0.735,3.479,0.854,7.935
0.325,0.449,0.786,2.991,-0.854,6.958
0.319,0.438,0.782,5.310,0.732,6.165
0.319,0.448,0.810,5.554,0.732,6.836
0.310,0.434,0.842,4.883,0.061,7.385
0.319,0.439,0.841,4.089,-0.488,8.545
0.316,0.439,0.859,2.869,-1.709,8.423
0.309,0.425,0.850,1.831,-2.319,7.690
0.314,0.413,0.833,0.854,-2.930,8.240
0.313,0.409,0.820,-0.488,-3.296,7.996
0.311,0.402,0.812,-1.465,-3.357,7.080
0.306,0.412,0.820,-1.892,-3.601,6.165
0.305,0.415,0.795,-1.648,-3.052,5.188
0.301,0.434,0.833,-1.526,-2.441,4.150
0.303,0.426,0.774,-1.160,-0.732,3.052
0.290,0.433,0.798,-1.709,-1.526,2.625
0.288,0.432,0.842,-1.404,-3.113,3.235
0.277,0.426,0.835,1.587,-1.404,3.601
0.277,0.418,0.804,4.578,0.244,4.211
0.275,0.417,0.818,4.944,-1.404,4.883
0.277,0.407,0.810,5.676,-2.319,4.456
0.282,0.413,0.781,5.554,-2.258,3.601
0.291,0.424,0.767,4.456,-3.052,2.625
0.299,0.443,0.769,2.380,-3.845,0.916
0.302,0.458,0.779,0.305,-3.906,-0.793
0.300,0.463,0.792,-1.282,-3.235,-1.831
0.303,0.467,0.801,-1.953,-2.625,-2.075

0.491,-1.000,-1.532,-68.848,56.152,-129.761
0.632,-0.972,-1.631,-56.580,86.426,-155.701
0.806,-0.936,-1.648,-36.621,124.390,-184.570
0.990,-0.885,-1.645,-13.062,168.518,-210.876
1.178,-0.861,-1.557,8.301,217.346,-229.858
1.326,-0.884,-1.408,29.663,262.024,-239.380
1.421,-0.943,-1.247,52.002,304.138,-239.624
1.456,-1.014,-1.062,80.017,345.337,-232.056
1.449,-1.051,-0.856,114.136,385.925,-224.121
1.469,-1.020,-0.584,145.447,425.293,-221.069
1.483,-0.793,-0.313,173.828,460.937,-225.586
1.500,-0.532,0.139,195.312,485.657,-240.540
1.529,-0.137,0.700,200.745,497.498,-259.766
1.474,0.361,1.293,170.349,502.808,-286.499
1.613,1.196,2.255,139.465,501.282,-289.673
1.599,1.833,2.945,94.727,481.384,-275.818
1.280,2.261,3.669,62.134,440.613,-237.366
0.842,2.352,4.000,47.424,394.287,-175.720
0.595,2.079,3.751,35.034,350.037,-107.605
0.578,1.678,3.216,23.743,304.871,-55.237
0.601,1.424,2.877,16.479,268.677,-24.841
0.687,1.318,2.636,-6.958,252.258,-20.752
0.644,1.256,2.729,-7.812,238.159,-27.588
0.563,1.196,2.784,10.193,241.516,-33.997
0.481,1.207,2.758,23.621,249.023,-37.231
0.688,0.845,0.899,31.128,267.761,-43.213
0.392,1.233,2.788,-10.864,229.004,-50.842
0.437,1.116,2.438,-14.526,188.721,-71.228
0.428,1.068,2.208,-37.048,177.795,-93.567
0.459,0.994,1.942,-53.040,155.762,-113.464
0.464,0.936,1.762,-58.105,132.202,-123.230
0.499,0.884,1.585,-53.284,114.380,-126.099
0.503,0.884,1.547,-45.410,102.295,-121.277
0.564,0.839,1.277,-33.142,102.783,-110.168
0.557,0.901,1.145,-24.597,100.281,-91.125
0.438,0.777,1.307,-18.799,84.106,-67.505
0.441,0.660,0.947,-12.085,85.815,-40.527
0.367,0.517,1.095,-15.869,59.998,-18.982
0.331,0.411,1.133,-8.789,33.325,-4.333
0.348,0.230,0.959,-4.944,14.160,3.357
0.347,0.156,0.833,-2.625,1.221,5.798
0.363,0.080,0.660,-4.089,-14.099,6.226
0.355,0.078,0.620,-5.737,-30.029,7.629
0.315,0.100,0.665,-8.118,-44.067,9.705
0.346,0.213,0.857,-11.780,-45.532,10.071
0.396,0.261,0.721,-5.493,-33.691,3.967
0.386,0.311,0.760,-2.441,-29.297,-2.930
0.478,0.375,0.785,-0.854,-29.419,-8.057
0.433,0.463,0.773,-5.981,-47.974,-9.155
0.451,0.525,0.862,-12.390,-62.195,-10.498
0.388,0.617,0.960,-9.766,-61.279,-9.033
0.364,0.652,0.970,-9.644,-49.194,-5.371
0.350,0.675,0.994,-8.911,-31.311,-2.441
0.356,0.642,0.955,-8.240,-16.846,-1.404
0.331,0.625,0.958,-12.634,-12.756,0.977
0.324,0.538,0.852,-14.587,-13.367,1.160
0.317,0.504,0.828,-14.038,-17.395,0.916
0.328,0.498,0.862,-12.390,-19.104,0.732
0.351,0.449,0.712,-9.033,-15.320,0.549
0.312,0.463,0.804,-6.470,-15.076,1.587
0.325,0.469,0.764,-2.930,-10.620,2.747
0.327,0.482,0.693,-0.061,-2.319,3.113
0.320,0.485,0.713,0.488,-0.183,3.052
0.305,0.507,0.736,-0.671,-0.916,3.357
0.295,0.490,0.753,-2.197,2.380,2.869
0.282,0.479,0.735,-3.906,5.310,3.113
0.292,0.444,0.725,-4.700,3.784,3.906
0.257,0.437,0.769,-2.686,-2.686,5.432
0.253,0.421,0.773,-0.854,-5.432,5.432
0.255,0.407,0.774,0.183,-6.775,4.700
0.250,0.398,0.790,0.854,-8.606,3.418
0.258,0.401,0.773,2.563,-9.705,2.563
0.268,0.409,0.736,4.639,-10.315,2.014
0.279,0.425,0.752,5.066,-13.184,1.892
0.291,0.442,0.760,4.700,-13.184,1.160
0.297,0.459,0.765,2.747,-10.559,-0.488
0.307,0.469,0.763,0.549,-7.324,-1.892
0.301,0.466,0.780,-0.610,-3.845,-2.625
0.312,0.469,0.756,-0.671,-0.305,-2.258
0.296,0.474,0.774,0.366,-0.244,14.832
0.288,0.476,0.791,2.625,-1.648,1.892
0.286,0.471,0.796,5.005,-2.075,4.028
0.273,0.464,0.808,5.859,-3.479,5.127
0.272,0.464,0.815,5.127,-5.249,5.005
0.276,0.468,0.813,3.479,-6.287,3.723
0.277,0.477,0.816,1.709,-7.507,2.869
0.276,0.480,0.813,0.183,-7.690,2.197
0.276,0.477,0.805,-0.732,-7.202,1.526
0.281,0.479,0.808,-1.282,-7.202,1.709
0.281,0.483,0.814,-1.343,-7.202,2.136
0.280,0.480,0.824,-1.221,-7.263,1.831
0.273,0.480,0.840,-0.793,-6.836,2.014
0.272,0.479,0.836,-0.732,-5.615,1.831
0.273,0.468,0.816,-1.221,-4.700,1.343
0.270,0.459,0.800,-1.282,-4.822,1.282
0.263,0.459,0.815,1.526,-7.629,4.028
0.272,0.457,0.776,3.723,-7.568,5.615
0.264,0.458,0.796,3.479,-9.399,6.836
0.267,0.453,0.788,1.953,-10.559,6.714
0.262,0.451,0.837,0.000,-10.559,5.615
0.273,0.443,0.806,-0.488,-8.057,4.517
0.272,0.443,0.798,-1.648,-7.446,3.418
0.263,0.447,0.805,-1.465,-6.775,2.930
0.265,0.448,0.795,-1.404,-6.042,2.747
0.259,0.446,0.812,-1.709,-5.981,2.563
0.251,0.440,0.800,-1.465,-4.700,2.563
0.242,0.441,0.809,-1.160,-3.784,2.441
0.245,0.435,0.781,-0.305,-3.601,2.319
0.240,0.447,0.808,0.977,-4.150,3.052
0.247,0.443,0.785,2.197,-4.517,3.052
0.243,0.453,0.818,2.258,-3.784,2.625
0.255,0.444,0.769,1.953,-2.686,1.770
0.244,0.455,0.810,0.610,-3.052,1.038
0.251,0.449,0.777,-0.488,-2.319,-0.366
0.240,0.462,0.810,-1.038,-2.014,-0.916
0.245,0.454,0.789,-1.404,-1.709,-1.648
0.243,0.457,0.787,-1.465,-1.160,-1.770
0.241,0.465,0.810,-1.160,-1.221,-1.953
0.238,0.474,0.812,-0.122,-0.732,-1.831

0.741,-1.402,-1.592,-68.176,-43.396,-75.867
0.992,-1.484,-1.821,-64.453,-21.790,-112.854
1.270,-1.508,-1.954,-52.124,21.240,-156.799
1.498,-1.514,-2.014,-28.076,87.219,-202.087
1.658,-1.465,-1.897,6.714,162.659,-238.953
1.803,-1.415,-1.625,53.162,240.601,-264.648
1.842,-1.344,-1.268,104.980,312.378,-279.663
1.903,-1.254,-0.876,156.860,423.706,-280.151
1.957,-0.923,-0.146,237.427,462.708,-277.527
1.914,-0.667,0.202,255.005,496.521,-277.039
1.762,-0.342,0.596,253.540,521.545,-283.691
1.737,0.031,0.911,226.868,536.194,-302.124
1.725,0.584,1.422,175.293,538.086,-330.933
1.481,0.728,2.625,112.305,517.456,-349.731
1.657,1.790,2.438,30.640,491.821,-358.276
1.288,2.507,3.325,49.805,454.102,-343.689
0.712,2.743,3.983,58.167,384.460,-255.005
0.403,2.604,3.532,63.049,335.754,-143.127
0.328,2.343,3.099,61.096,285.339,-49.377
0.319,2.093,2.811,42.419,239.807,-18.372
0.277,1.989,2.847,10.437,222.229,-33.142
0.199,1.792,2.768,-1.038,229.553,-56.091
0.058,1.649,2.734,18.372,246.033,-59.998
0.008,1.488,2.486,39.612,252.747,-49.866
0.005,1.399,2.468,45.837,246.521,-38.696
-0.045,1.534,3.140,40.344,241.394,-41.382
0.129,1.370,2.129,23.560,253.906,-62.683
0.074,0.973,2.259,-15.320,230.225,-88.806
0.114,0.923,1.909,-23.926,229.736,-117.065
0.160,0.943,1.907,-47.791,198.914,-139.832
0.198,0.879,1.918,-56.335,174.255,-155.090
0.290,0.867,1.552,-47.180,176.025,-165.955
0.353,0.919,1.439,-43.396,161.987,-170.837
0.454,1.054,1.445,-40.833,134.888,-163.269
0.366,1.204,1.558,-36.560,105.652,-133.789
0.170,1.207,1.711,-23.010,79.651,-82.214
0.121,0.943,1.402,-12.085,55.115,-27.649
0.161,0.747,1.346,-14.648,21.545,5.859
0.238,0.520,1.139,-15.564,-9.583,14.954
0.299,0.388,0.886,-14.709,-31.006,9.827
0.310,0.398,0.859,-14.893,-50.720,1.099
0.310,0.414,0.959,-2.197,-60.303,-2.747
0.349,0.417,0.835,20.447,-45.898,0.061
0.363,0.448,0.775,33.997,-25.696,5.127
0.351,0.427,0.741,34.912,-16.541,9.705
0.345,0.431,0.749,30.273,-11.108,13.184
0.351,0.463,0.792,20.691,-7.019,11.597
0.343,0.506,0.807,9.033,-6.287,6.653
0.318,0.516,0.849,-1.709,-10.315,2.625
0.302,0.505,0.900,-7.874,-18.066,2.808
0.302,0.515,0.902,-9.766,-27.893,5.554
0.315,0.485,0.858,-8.606,-36.987,7.690
0.314,0.478,0.859,-8.606,-45.166,7.385
0.315,0.453,0.793,-8.179,-48.279,4.700
0.314,0.432,0.689,-6.653,-48.157,1.587
0.276,0.459,0.730,-5.371,-49.316,-0.916
0.267,0.426,0.600,-4.395,-43.762,-5.310
0.244,0.492,0.720,-5.554,-31.250,-10.132
0.268,0.496,0.621,-5.432,-18.005,-14.771
0.251,0.527,0.645,-5.859,-7.507,-16.602
0.238,0.541,0.674,-6.042,-1.892,-15.381
0.228,0.541,0.744,-5.859,0.671,-11.475
0.220,0.518,0.735,-2.747,1.038,-5.798
0.207,0.502,0.803,0.000,-2.808,0.183
0.219,0.476,0.778,1.953,-5.981,3.540
0.223,0.468,0.825,0.366,-8.423,3.357
0.221,0.452,0.805,-1.221,-8.301,0.549
0.214,0.452,0.799,-2.930,-8.911,-2.380
0.209,0.473,0.837,-5.127,-10.803,-4.578
0.208,0.496,0.796,-6.104,-12.756,-5.737
0.209,0.511,0.785,-7.690,-14.832,-7.629
0.211,0.531,0.761,-8.301,-14.099,-9.338
0.226,0.543,0.732,-8.728,-13.733,-10.132
0.229,0.548,0.738,-9.033,-14.587,-9.888
0.222,0.555,0.742,-6.775,-14.526,-8.484
0.219,0.566,0.739,-0.977,-14.648,-5.249
0.214,0.567,0.755,3.296,-15.503,-2.197
0.205,0.559,0.791,6.287,-15.747,0.000
0.205,0.540,0.785,8.728,-13.306,1.526
0.194,0.522,0.783,7.446,-10.986,1.953
0.189,0.505,0.772,4.395,-8.606,1.587
0.181,0.496,0.794,2.197,-6.653,0.854
0.187,0.488,0.764,1.404,-3.662,-0.244
0.181,0.493,0.767,1.160,-1.282,-1.099
0.178,0.503,0.770,1.953,1.099,-1.892
0.179,0.515,0.770,2.930,2.747,-1.770
0.187,0.529,0.767,4.211,4.211,-0.671
0.181,0.540,0.788,4.822,4.150,1.404
0.177,0.535,0.801,4.272,2.747,3.418
0.176,0.536,0.806,3.479,0.916,4.883
0.181,0.535,0.816,2.075,-0.977,5.371
0.184,0.521,0.811,0.305,-1.831,4.761
0.186,0.517,0.806,-0.793,-2.625,3.845
0.188,0.519,0.798,-0.793,-3.906,3.540
0.196,0.516,0.796,-0.977,-4.944,3.296
0.196,0.512,0.791,-0.977,-5.371,3.235
0.199,0.507,0.790,-0.732,-4.333,3.418
0.202,0.501,0.784,-0.183,-3.052,3.479
0.190,0.505,0.789,1.709,-2.075,4.211
0.193,0.507,0.788,5.005,-0.854,5.554
0.185,0.514,0.795,7.080,0.305,6.470
0.180,0.513,0.803,8.484,0.793,7.019
0.168,0.509,0.799,8.911,0.977,7.568
0.178,0.517,0.815,7.690,0.977,7.690
0.178,0.496,0.818,5.371,-0.488,7.080
0.156,0.504,0.840,4.150,-2.197,6.897
0.177,0.457,0.732,3.540,-2.014,6.775
0.138,0.488,0.912,2.014,-5.249,6.958
0.163,0.479,0.823,4.517,-5.493,6.409
0.166,0.468,0.793,5.432,-6.714,5.920
0.168,0.483,0.799,5.859,-6.226,5.188
0.167,0.487,0.811,4.639,-5.798,4.272
0.168,0.485,0.807,3.174,-4.944,2.808
0.166,0.489,0.816,2.319,-4.089,1.648
0.166,0.496,0.813,3.296,-3.418,0.916
0.165,0.506,0.829,3.540,-3.967,0.916
0.155,0.506,0.847,3.601,-4.395,1.465
0.157,0.499,0.828,3.784,-4.272,2.869
0.160,0.487,0.820,2.991,-5.188,3.662

0.393,-0.961,-1.452,-46.997,59.998,-129.089
0.539,-0.953,-1.535,-32.043,88.745,-154.236
0.672,-0.903,-1.561,-13.794,124.451,-179.443
0.798,-0.826,-1.525,5.981,165.527,-203.796
0.936,-0.748,-1.438,26.794,208.740,-224.670
1.036,-0.677,-1.305,46.021,250.427,-241.272
1.116,-0.634,-1.178,64.148,289.429,-251.038
1.219,-0.602,-0.961,81.360,325.256,-253.967
1.245,-0.600,-0.784,100.647,357.666,-249.634
1.232,-0.600,-0.551,121.460,385.498,-240.540
1.252,-0.550,-0.319,145.142,409.363,-232.117
1.271,-0.359,-0.059,166.687,428.650,-228.943
1.286,-0.066,0.375,179.321,458.008,-243.103
1.371,0.531,1.375,145.874,468.689,-257.019
1.497,0.797,1.743,120.605,484.619,-276.184
1.623,1.038,2.033,112.732,494.385,-291.626
1.847,1.450,2.472,117.737,493.164,-290.833
1.607,1.977,3.350,121.704,467.102,-251.404
0.914,2.056,3.998,125.732,411.377,-167.786
0.665,1.912,3.696,115.051,345.520,-72.327
0.830,1.623,3.270,90.942,264.099,-8.728
1.045,1.533,3.064,42.725,205.627,7.019
1.112,1.363,2.809,-13.123,186.829,-12.939
1.017,1.257,2.911,-48.157,190.613,-38.147
0.862,1.205,2.783,-43.579,205.994,-51.575
0.697,1.217,2.612,-25.024,209.839,-50.171
0.750,0.914,1.511,-20.325,201.050,-46.265
0.510,1.291,2.641,-58.960,160.095,-50.781
0.554,1.136,2.133,-77.820,120.422,-72.754
0.504,1.073,2.120,-106.201,98.938,-89.600
0.494,0.891,1.817,-111.511,76.660,-96.863
0.438,0.709,1.641,-95.093,65.247,-92.285
0.443,0.615,1.148,-65.857,69.275,-79.041
0.421,0.543,0.914,-36.682,56.152,-60.120
0.417,0.420,0.995,-16.296,36.072,-44.800
0.464,0.322,0.908,-1.343,40.405,-36.926
0.447,0.277,0.866,8.484,51.941,-37.964
0.398,0.256,0.878,13.489,57.312,-46.204
0.362,0.261,1.051,23.193,56.702,-56.091
0.392,0.396,0.943,21.423,57.251,-64.636
0.378,0.499,0.917,8.423,42.908,-67.993
0.307,0.607,1.170,3.906,19.592,-60.120
0.274,0.646,1.374,0.916,5.859,-45.410
0.320,0.629,1.159,-4.211,3.601,-29.419
0.331,0.613,1.122,-9.766,-10.498,-15.991
0.347,0.582,1.073,-12.390,-28.137,-8.179
0.385,0.581,0.975,-19.165,-45.044,-5.554
0.404,0.598,1.038,-26.855,-59.204,-7.507
0.432,0.610,1.002,-32.410,-57.922,-12.695
0.466,0.599,0.792,-37.598,-47.974,-18.433
0.461,0.580,0.662,-42.175,-46.875,-21.057
0.432,0.554,0.612,-41.382,-50.659,-19.226
0.392,0.578,0.706,-32.959,-47.974,-14.282
0.421,0.568,0.536,-20.691,-41.504,-8.545
0.386,0.564,0.644,-14.709,-40.222,-3.845
0.424,0.520,0.458,-6.409,-29.541,-0.427
0.387,0.539,0.628,-0.916,-18.677,2.319
0.377,0.515,0.607,2.930,-11.780,2.258
0.327,0.551,0.851,1.343,-11.475,1.038
0.372,0.493,0.700,3.174,-7.751,0.061
0.365,0.509,0.781,3.052,-3.174,-0.488
0.376,0.528,0.749,3.418,1.221,-1.892
0.374,0.523,0.702,1.343,1.343,-1.648
0.357,0.504,0.728,-0.732,-2.747,0.854
0.337,0.476,0.773,-1.648,-5.188,3.113
0.349,0.447,0.726,-0.366,-5.188,4.822
0.344,0.445,0.721,1.709,-6.836,5.127
0.331,0.467,0.730,4.028,-7.935,3.845
0.331,0.485,0.724,5.249,-6.836,1.892
0.333,0.485,0.726,3.723,-5.371,-0.244
0.343,0.485,0.711,0.977,-3.357,-2.258
0.337,0.476,0.740,-0.671,-3.418,-3.296
0.343,0.463,0.703,-0.305,-3.235,-3.479
0.330,0.468,0.724,1.160,-6.592,-2.258
0.326,0.461,0.777,5.249,-10.681,-0.610
0.308,0.503,0.846,10.193,-9.338,1.709
0.326,0.489,0.757,12.878,-6.958,2.808
0.312,0.494,0.814,13.123,-3.784,3.906
0.310,0.494,0.762,11.230,-0.671,3.906
0.302,0.488,0.774,6.226,-2.686,3.052
0.307,0.478,0.776,2.014,-3.296,1.709
0.312,0.477,0.795,0.061,-2.686,0.183
0.314,0.486,0.801,-0.610,-2.014,-1.343
0.310,0.506,0.798,-0.488,-2.502,-1.892
0.302,0.518,0.810,-0.366,-4.395,-1.892
0.299,0.519,0.812,-1.099,-5.981,-1.648
0.298,0.516,0.794,-1.953,-6.165,-0.854
0.299,0.505,0.797,-2.014,-5.310,0.305
0.296,0.487,0.744,-1.343,-4.456,1.160
0.293,0.475,0.746,-0.488,-5.859,2.563
0.289,0.485,0.762,0.671,-6.104,2.930
0.300,0.488,0.739,1.099,-6.653,2.380
0.303,0.505,0.758,0.916,-7.141,2.014
0.306,0.513,0.753,0.305,-7.019,1.892
0.315,0.506,0.706,0.366,-5.066,1.282
0.308,0.507,0.761,-0.244,-5.249,1.953
0.309,0.525,0.775,-0.549,-3.967,2.258
0.308,0.513,0.752,-0.671,-2.930,1.770
0.300,0.508,0.760,-0.916,-2.625,1.404
0.302,0.514,0.764,-0.549,-2.686,1.770
0.305,0.512,0.766,0.244,-2.747,2.197
0.306,0.511,0.778,2.197,-2.747,3.723
0.309,0.489,0.740,4.395,-2.197,5.554
0.294,0.482,0.785,4.456,-2.197,6.836
0.299,0.475,0.771,3.174,-2.991,6.714
0.298,0.463,0.775,0.854,-3.174,5.127
0.297,0.451,0.759,-0.610,-1.282,2.991
0.293,0.447,0.768,-1.160,-0.366,2.197
0.286,0.459,0.777,-1.160,-0.244,1.587
0.288,0.470,0.779,-0.549,-0.366,1.038
0.291,0.485,0.779,-0.366,-0.122,0.671
0.290,0.495,0.781,-0.732,0.122,0.549
0.282,0.500,0.786,-1.404,-0.183,0.305
0.284,0.505,0.786,-1.038,-1.221,1.892
0.288,0.513,0.781,0.244,-2.197,3.418
0.289,0.517,0.784,1.465,-2.869,4.272
0.284,0.523,0.803,1.648,-3.845,4.639
0.286,0.520,0.794,1.221,-3.418,4.517
0.288,0.513,0.782,-0.061,-2.502,3.723

0.691,-1.408,-1.635,-117.676,-129.028,-71.472
1.009,-1.592,-1.941,-103.516,-115.906,-92.468
1.335,-1.751,-2.326,-75.134,-66.406,-129.150
1.565,-1.753,-2.635,-47.241,7.568,-177.734
1.859,-1.727,-2.668,-17.334,102.478,-233.582
2.223,-1.688,-2.448,9.827,213.867,-286.133
2.525,-1.554,-2.173,39.978,307.983,-328.308
2.772,-1.404,-1.784,65.857,377.075,-360.107
2.899,-1.296,-1.501,96.558,429.382,-381.348
2.951,-1.179,-1.170,130.554,476.746,-388.123
2.973,-0.991,-0.712,178.772,516.479,-380.920
2.895,-0.722,-0.076,235.840,554.138,-361.694
2.923,-0.325,0.555,287.842,589.966,-335.754
2.886,-0.096,1.316,325.928,622.009,-312.378
2.977,0.121,2.034,323.120,655.273,-301.086
3.451,0.695,2.837,300.537,690.796,-307.556
3.324,1.765,4.000,276.001,686.096,-296.753
1.934,2.425,4.000,229.980,621.765,-226.990
0.948,1.591,4.000,152.588,547.363,-144.409
0.833,1.547,4.000,118.530,453.918,-91.858
1.217,1.146,4.000,-15.442,301.575,-90.454
1.110,1.495,4.000,-116.638,190.918,-123.352
0.991,1.590,3.994,-165.405,138.489,-164.612
0.775,1.781,3.840,-134.033,141.296,-193.970
0.543,1.636,3.171,-95.581,158.325,-202.698
0.458,2.697,3.497,-147.827,131.348,-192.688
0.588,2.536,3.031,-174.500,43.640,-185.669
0.507,2.542,2.652,-171.936,39.429,-172.852
0.186,2.562,2.727,-166.016,31.738,-144.897
0.405,2.222,1.875,-104.126,23.804,-76.172
0.504,1.809,1.874,-60.364,-13.550,-5.737
0.528,1.360,1.286,-21.790,-21.118,29.480
0.433,1.127,1.556,-5.920,2.869,37.292
0.211,0.694,1.302,3.479,60.547,29.907
0.103,0.345,0.728,-1.465,99.915,30.212
-0.071,0.098,1.043,-1.892,63.110,35.522
-0.117,-0.086,1.134,13.306,28.076,36.194
-0.060,-0.168,0.847,25.757,22.461,25.146
-0.030,-0.101,0.859,15.747,12.695,10.498
0.013,0.004,0.914,14.526,8.972,-4.395
0.105,0.002,0.677,19.897,15.076,-21.851
0.164,0.101,0.666,23.865,12.146,-36.194
0.211,0.169,0.804,31.799,2.747,-44.128
0.298,0.287,0.786,38.818,3.967,-45.227
0.396,0.367,0.682,40.649,6.592,-43.518
0.441,0.570,0.764,38.452,9.277,-39.063
0.475,0.711,0.729,30.579,5.615,-32.043
0.449,0.767,0.825,19.775,-1.343,-22.095
0.387,0.784,0.912,11.292,4.517,-11.353
0.409,0.718,0.748,0.061,15.015,-2.380
0.401,0.623,0.809,-14.221,15.991,2.869
0.419,0.507,0.719,-22.400,22.156,4.272
0.394,0.432,0.680,-29.114,22.766,3.296
0.355,0.400,0.712,-26.855,18.127,2.625
0.346,0.396,0.698,-13.245,17.517,3.418
0.349,0.458,0.725,-0.793,18.127,4.395
0.355,0.515,0.641,7.202,16.846,4.578
0.338,0.605,0.698,5.371,10.986,4.700
0.319,0.636,0.794,0.366,3.906,3.174
0.339,0.641,0.719,-6.165,-0.977,2.502
0.313,0.642,0.816,-15.076,-4.395,2.930
0.309,0.620,0.791,-19.714,-3.601,2.686
0.299,0.590,0.813,-23.499,-6.531,2.075
0.277,0.576,0.748,-25.879,-7.690,1.221
0.275,0.535,0.771,-27.588,-8.118,0.183
0.304,0.526,0.728,-23.682,-6.836,1.465
0.301,0.509,0.710,-13.550,-3.113,3.845
0.289,0.498,0.677,-0.854,-1.404,8.728
0.278,0.500,0.685,10.193,-1.770,14.465
0.279,0.505,0.683,15.808,-1.587,17.029
0.277,0.506,0.701,14.343,-1.282,15.869
0.269,0.490,0.720,10.376,-0.793,13.550
0.250,0.487,0.735,5.615,-0.427,10.742
0.236,0.470,0.753,1.831,-1.099,7.874
0.234,0.469,0.749,-0.244,-2.075,6.409
0.237,0.469,0.736,-0.671,-1.892,5.859
0.257,0.465,0.750,-1.404,-2.258,4.700
0.266,0.472,0.750,-1.343,-1.892,3.418
0.266,0.483,0.751,0.366,0.244,2.930
0.277,0.497,0.722,3.601,1.770,3.723
0.271,0.510,0.781,6.226,1.404,4.395
0.284,0.521,0.761,7.812,3.174,4.517
0.283,0.540,0.777,5.005,4.211,3.906
0.281,0.531,0.751,2.197,3.357,3.418
0.255,0.519,0.840,2.502,-0.244,4.211
0.258,0.513,0.812,7.324,1.892,5.249
0.255,0.501,0.760,9.338,3.662,6.226
0.241,0.505,0.820,10.803,0.793,7.385
0.244,0.510,0.779,11.414,1.282,7.690
0.239,0.504,0.789,9.460,1.587,6.409
0.240,0.496,0.796,6.470,2.747,4.639
0.246,0.484,0.773,4.211,3.967,2.747
0.247,0.483,0.796,4.028,4.089,2.441
0.258,0.508,0.794,10.559,4.456,3.479
0.257,0.524,0.804,12.146,3.601,4.333
0.257,0.534,0.829,11.963,2.380,4.822
0.256,0.531,0.813,10.864,2.197,5.005
0.256,0.531,0.817,8.240,1.343,4.517
0.258,0.522,0.804,4.333,0.366,3.235
0.266,0.521,0.786,0.916,0.061,1.831
0.274,0.519,0.779,-0.916,-0.610,1.038
0.278,0.520,0.771,-1.526,-0.061,0.549
0.283,0.517,0.773,-1.892,0.854,0.244
0.279,0.520,0.776,-1.953,1.343,0.427
0.274,0.520,0.783,-1.282,1.465,1.160
0.269,0.516,0.801,-0.610,1.343,1.831
0.267,0.510,0.796,0.366,1.038,2.747
0.261,0.507,0.810,0.793,0.366,3.601
0.262,0.493,0.806,0.916,-1.038,3.967
0.262,0.486,0.788,1.282,-1.770,4.089
0.257,0.484,0.795,0.916,-2.563,4.333
0.257,0.484,0.786,0.183,-2.869,3.601
0.261,0.486,0.762,-0.427,-3.662,3.052
0.266,0.490,0.752,-1.465,-4.639,2.502
0.262,0.494,0.755,-2.319,-4.883,1.587
0.264,0.496,0.757,-3.235,-4.639,1.038
0.266,0.489,0.754,-3.540,-4.333,0.732
0.265,0.496,0.749,-2.930,-3.601,0.916
0.265,0.494,0.750,-1.099,-3.296,1.648

0.574,-1.355,-1.504,-75.806,-14.343,-115.906
0.745,-1.445,-1.756,-68.970,2.197,-139.221
0.936,-1.449,-1.978,-45.532,38.696,-169.495
1.117,-1.388,-2.063,-13.733,91.064,-208.679
1.282,-1.259,-2.006,21.301,154.358,-252.869
1.491,-1.073,-1.792,55.542,222.961,-294.250
1.666,-0.857,-1.514,88.440,285.339,-326.355
1.764,-0.679,-1.175,115.295,335.693,-345.093
1.873,-0.498,-0.796,139.526,376.831,-347.900
1.847,-0.302,-0.395,163.818,412.415,-335.937
1.786,-0.164,-0.037,189.697,439.880,-311.340
1.696,-0.032,0.346,218.384,454.712,-277.344
1.580,0.152,0.766,235.107,460.327,-242.737
1.495,0.304,1.116,235.962,464.722,-221.680
1.526,0.542,1.406,219.910,472.961,-219.971
1.540,0.884,1.868,183.472,475.891,-231.445
1.460,1.187,2.315,133.545,472.961,-245.117
1.265,1.425,2.753,74.341,457.275,-248.657
1.019,1.518,3.016,21.851,421.936,-236.694
0.917,1.437,3.010,-0.854,371.765,-211.609
0.922,1.486,2.951,4.639,314.941,-181.885
0.974,1.706,2.948,22.827,265.991,-160.767
0.955,1.881,3.034,39.429,239.197,-153.320
0.900,1.995,3.008,37.537,231.995,-155.273
0.848,2.019,2.895,18.616,228.516,-157.837
0.782,1.973,2.696,3.296,220.642,-153.992
0.709,1.911,2.587,0.366,210.571,-142.517
0.854,1.518,0.916,5.676,220.703,-131.653
0.625,1.794,2.270,-27.100,188.232,-115.601
0.690,1.667,2.176,-10.193,151.917,-100.281
0.643,1.466,2.117,4.944,152.954,-85.205
0.631,1.378,1.966,15.686,148.376,-77.637
0.616,1.174,1.865,22.705,130.798,-74.524
0.493,1.176,2.109,22.095,130.371,-70.801
0.465,1.020,2.117,18.860,132.446,-59.082
0.445,0.818,1.539,17.944,120.789,-32.715
0.351,0.635,1.619,3.174,87.524,-7.629
0.308,0.437,1.404,-16.052,56.030,1.953
0.258,0.305,1.309,-43.945,29.907,2.502
0.282,0.160,1.137,-54.504,10.010,-1.404
0.325,0.112,0.708,-45.044,-8.911,-1.282
0.332,0.148,0.901,-38.513,-43.274,-0.061
0.354,0.199,0.919,-10.864,-54.016,4.028
0.353,0.277,1.058,15.381,-41.382,9.033
0.395,0.309,0.792,26.794,-17.517,10.498
0.348,0.355,0.905,20.508,-6.653,8.728
0.344,0.340,0.830,8.179,-1.221,5.066
0.326,0.362,0.840,-8.606,1.526,0.916
0.329,0.371,0.813,-22.949,0.671,-3.174
0.325,0.397,0.761,-32.715,0.305,-6.042
0.320,0.460,0.803,-40.100,-5.371,-8.484
0.322,0.517,0.788,-42.847,-11.658,-9.949
0.362,0.557,0.772,-43.091,-15.686,-9.888
0.401,0.600,0.751,-38.757,-22.034,-7.935
0.376,0.634,0.683,-31.067,-29.907,-3.479
0.378,0.631,0.496,-18.738,-35.828,4.211
0.341,0.735,0.872,-11.230,-44.006,12.878
0.393,0.700,0.702,3.845,-33.264,16.724
0.377,0.688,0.652,12.573,-18.127,18.005
0.361,0.662,0.644,12.329,-11.047,16.418
0.349,0.653,0.645,6.226,-6.531,13.733
0.328,0.633,0.659,-0.244,-4.944,10.010
0.313,0.614,0.649,-10.437,-4.700,5.188
0.298,0.597,0.669,-13.489,-7.812,4.639
0.283,0.591,0.709,-14.526,-12.756,5.188
0.281,0.594,0.710,-10.864,-16.174,7.751
0.283,0.575,0.684,-3.784,-18.005,11.780
0.291,0.594,0.677,1.953,-16.235,15.686
0.297,0.576,0.689,3.845,-17.517,17.517
0.299,0.575,0.740,2.747,-13.855,17.334
0.300,0.548,0.681,0.244,-9.766,15.076
0.283,0.539,0.710,-1.953,-10.559,13.367
0.292,0.524,0.716,-2.991,-15.991,12.146
0.271,0.535,0.832,-1.831,-18.494,10.742
0.320,0.511,0.615,1.953,-12.512,9.644
0.284,0.532,0.715,1.709,-12.695,8.606
0.279,0.556,0.759,1.709,-12.878,7.935
0.282,0.550,0.708,0.671,-10.925,7.874
0.275,0.545,0.718,-0.977,-10.071,8.240
0.263,0.534,0.720,-2.197,-10.071,8.301
0.268,0.527,0.713,-1.465,-9.583,8.850
0.271,0.524,0.714,0.977,-8.179,9.583
0.271,0.518,0.719,3.601,-5.981,9.460
0.268,0.516,0.723,4.700,-3.418,8.484
0.261,0.508,0.733,3.540,-1.892,6.653
0.255,0.505,0.744,0.488,-1.160,4.028
0.248,0.505,0.753,-1.587,-0.488,2.014
0.243,0.509,0.754,-1.953,-0.244,0.427
0.240,0.513,0.751,-1.343,-0.183,-0.366
0.247,0.519,0.741,-1.160,-0.916,-0.610
0.243,0.517,0.740,-1.221,-2.136,-1.038
0.248,0.522,0.748,-2.014,-4.395,-1.526
0.252,0.532,0.759,-1.221,-6.653,-1.343
0.257,0.545,0.757,0.977,-8.118,-0.793
0.261,0.563,0.770,2.808,-8.850,-0.061
0.258,0.574,0.778,3.601,-8.972,0.916
0.257,0.574,0.779,2.930,-8.301,1.587
0.252,0.562,0.774,0.854,-7.507,1.221
0.248,0.548,0.770,-0.427,-6.531,1.038
0.244,0.536,0.757,-1.099,-5.798,0.488
0.244,0.531,0.747,-0.916,-5.127,0.061
0.245,0.534,0.733,-0.305,-3.967,-0.244
0.243,0.536,0.727,0.122,-2.563,-0.427
0.247,0.539,0.718,0.000,-0.732,-0.977
0.250,0.548,0.718,0.366,1.343,-1.038
0.247,0.554,0.724,1.099,2.991,-0.916
0.243,0.568,0.742,0.916,3.845,-0.916
0.236,0.582,0.763,-0.122,3.418,-0.732
0.235,0.584,0.777,-0.549,2.075,0.000
0.233,0.588,0.779,-0.977,0.183,0.916
0.231,0.590,0.777,-0.610,-1.953,2.014
0.235,0.591,0.775,-0.183,-3.601,3.174
0.239,0.582,0.748,-0.183,-4.517,3.662
0.233,0.580,0.753,-0.610,-5.920,3.601
0.238,0.574,0.739,-0.671,-6.836,3.357
0.241,0.571,0.726,0.244,-6.470,3.052
0.243,0.571,0.719,1.953,-5.859,3.479
0.241,0.565,0.717,2.441,-4.883,3.357
0.243,0.563,0.710,2.380,-3.906,2.930

0.742,-1.383,-1.545,-132.324,-27.588,-106.079
0.977,-1.582,-1.808,-121.521,-20.752,-128.174
1.219,-1.692,-2.158,-95.459,3.601,-163.269
1.441,-1.685,-2.334,-67.810,44.556,-213.623
1.698,-1.562,-2.396,-33.691,109.741,-268.555
1.964,-1.363,-2.304,5.127,187.256,-318.726
2.208,-1.167,-2.085,44.128,260.925,-358.215
2.391,-0.962,-1.828,78.857,323.730,-381.775
2.424,-0.796,-1.461,110.962,375.061,-388.428
2.467,-0.689,-1.016,145.142,427.979,-379.211
2.458,-0.628,-0.584,184.509,478.210,-359.436
2.444,-0.465,0.017,231.689,516.785,-331.604
2.449,-0.203,0.593,284.424,544.312,-298.035
2.346,0.203,1.478,322.266,551.147,-266.113
2.293,0.755,2.580,317.383,545.654,-250.305
2.387,1.527,3.466,278.931,552.307,-264.221
2.139,2.348,4.000,203.918,550.537,-286.560
1.399,3.444,4.000,89.050,521.667,-283.325
0.858,3.232,4.000,-17.029,468.689,-246.826
0.224,2.594,4.000,-76.721,333.130,-175.232
0.340,1.917,4.000,-101.685,245.361,-90.942
0.331,1.719,3.432,-52.368,205.200,-40.955
0.323,1.603,2.896,3.296,171.448,-25.940
0.328,1.707,2.792,14.282,144.348,-33.081
0.304,1.720,2.625,-4.456,122.620,-48.279
0.202,1.754,2.552,-28.564,108.704,-60.364
0.161,1.642,2.412,-48.828,97.656,-68.604
0.142,1.409,1.871,-54.138,92.468,-75.989
0.036,1.444,2.439,-54.626,72.266,-79.956
0.086,1.298,1.605,-26.184,74.707,-80.017
0.090,1.130,1.521,-26.245,41.809,-65.674
0.041,1.189,2.037,-33.081,23.804,-56.458
0.094,0.942,1.453,-3.784,37.354,-49.194
0.065,0.907,1.268,-7.141,40.222,-41.504
0.086,0.727,1.270,-17.578,18.188,-42.908
0.124,0.654,1.262,-13.123,17.761,-46.448
0.152,0.626,1.122,-14.282,26.917,-51.880
0.157,0.569,1.164,-16.663,31.982,-56.580
0.170,0.498,0.927,-9.583,44.189,-58.594
0.147,0.494,0.927,-3.052,48.279,-55.908
0.136,0.462,0.838,4.822,47.058,-52.612
0.110,0.448,0.835,9.583,39.001,-48.401
0.106,0.466,0.877,11.230,24.658,-41.016
0.130,0.485,0.854,13.855,12.390,-30.518
0.151,0.496,0.902,17.273,2.319,-18.494
0.194,0.482,0.765,21.729,-5.371,-6.470
0.212,0.514,0.887,24.780,-13.000,2.930
0.255,0.518,0.691,29.358,-12.512,6.897
0.240,0.541,0.728,28.687,-19.714,7.019
0.223,0.597,0.957,27.893,-26.306,4.883
0.250,0.602,0.989,31.433,-13.184,1.648
0.277,0.625,0.827,35.095,10.803,-1.587
0.268,0.643,0.669,30.701,23.682,-4.272
0.258,0.640,0.679,16.174,20.447,-6.653
0.252,0.630,0.743,1.465,13.611,-8.484
0.256,0.618,0.763,-8.789,11.169,-9.583
0.256,0.595,0.697,-13.611,10.071,-9.766
0.248,0.604,0.710,-12.085,8.362,-7.263
0.259,0.580,0.544,-8.728,2.930,-3.662
0.219,0.601,0.770,-6.287,-9.460,-0.244
0.243,0.567,0.769,3.357,-9.338,2.441
0.261,0.571,0.641,10.986,0.854,4.700
0.242,0.559,0.632,9.460,0.244,4.150
0.226,0.551,0.657,4.761,-4.333,2.686
0.216,0.553,0.682,1.587,-7.202,1.404
0.218,0.548,0.714,-0.977,-8.057,-0.244
0.218,0.546,0.724,-3.967,-7.446,-1.953
0.209,0.544,0.725,-6.348,-6.653,-3.174
0.203,0.552,0.730,-4.822,-6.714,-2.747
0.209,0.564,0.716,0.854,-7.263,0.122
0.213,0.583,0.726,7.080,-8.850,4.089
0.203,0.603,0.751,9.583,-11.169,6.897
0.201,0.607,0.757,9.521,-12.024,9.949
0.218,0.595,0.730,5.554,-11.047,8.728
0.214,0.593,0.733,-0.610,-11.658,6.104
0.206,0.590,0.744,-5.310,-12.024,3.845
0.201,0.590,0.744,-7.446,-10.925,2.319
0.203,0.578,0.724,-7.874,-8.545,1.526
0.207,0.579,0.708,-7.202,-6.592,1.465
0.209,0.574,0.696,-5.005,-4.639,1.404
0.222,0.578,0.626,-2.747,-2.747,1.587
0.208,0.570,0.713,-3.174,-4.456,1.892
0.201,0.580,0.745,-0.549,-3.174,2.808
0.203,0.593,0.734,4.028,-0.427,4.456
0.205,0.600,0.745,7.507,0.793,5.798
0.211,0.604,0.750,8.484,1.770,6.653
0.211,0.599,0.751,7.507,2.441,6.775
0.210,0.588,0.760,5.371,2.441,6.409
0.203,0.579,0.771,2.930,1.953,5.981
0.203,0.567,0.768,1.099,2.014,5.554
0.193,0.568,0.812,-0.671,1.770,5.066
0.194,0.560,0.759,-0.183,1.160,5.859
0.187,0.570,0.798,0.671,-1.831,7.751
0.198,0.550,0.737,1.709,-2.869,8.850
0.190,0.561,0.761,1.160,-3.174,8.911
0.190,0.556,0.778,0.366,-4.395,8.667
0.191,0.545,0.749,1.587,-2.686,8.484
0.191,0.539,0.752,2.136,-1.587,7.935
0.188,0.531,0.761,2.563,-1.343,7.141
0.178,0.529,0.759,3.357,-0.366,6.592
0.177,0.532,0.761,2.930,-0.305,5.981
0.175,0.535,0.774,0.854,-0.977,5.005
0.175,0.531,0.780,-1.587,-1.709,3.418
0.178,0.535,0.768,-3.906,-2.258,2.380
0.181,0.536,0.759,-5.737,-2.930,1.770
0.184,0.542,0.748,-6.836,-3.296,1.160
0.189,0.542,0.741,-8.484,-3.296,0.000
0.190,0.546,0.732,-9.094,-2.625,-0.732
0.194,0.548,0.727,-7.996,-1.587,-1.038
0.197,0.555,0.727,-6.348,-0.305,-1.038
0.193,0.560,0.737,-4.578,1.282,-0.732
0.187,0.561,0.738,-2.686,2.869,-0.305
0.182,0.563,0.741,-1.038,4.089,0.427
0.180,0.564,0.741,0.122,4.578,1.282
0.173,0.556,0.769,-0.732,3.967,1.404
0.161,0.547,0.787,-2.319,1.831,1.343
0.160,0.541,0.778,-2.075,-0.366,2.319
0.168,0.536,0.767,-1.282,-1.892,2.869
0.178,0.531,0.756,-1.404,-2.014,1.892

0.754,-1.276,-1.376,-60.242,25.269,-121.094
1.025,-1.494,-1.724,-67.383,30.579,-135.010
1.363,-1.680,-1.963,-64.697,47.668,-158.081
1.644,-1.772,-2.237,-45.471,90.942,-194.214
1.898,-1.710,-2.280,-10.620,157.043,-243.347
2.167,-1.525,-2.113,37.537,239.197,-295.227
2.471,-1.257,-1.808,90.088,326.843,-341.370
2.670,-0.986,-1.373,137.878,401.855,-374.756
2.687,-0.658,-0.744,180.054,462.219,-388.306
2.769,-0.405,-0.214,216.980,513.672,-383.911
2.799,-0.154,0.198,258.789,557.556,-362.549
2.751,0.107,0.785,296.753,576.843,-322.876
2.602,0.366,1.460,321.350,577.759,-268.921
2.508,0.583,1.994,326.416,579.468,-218.567
2.508,0.843,2.503,305.603,580.750,-185.181
2.444,1.159,3.301,267.517,568.787,-171.387
2.097,1.378,3.964,202.026,550.598,-175.659
1.673,1.993,3.932,86.975,519.897,-185.791
1.295,2.126,4.000,18.005,457.825,-197.937
1.183,2.222,4.000,-46.570,386.475,-190.857
0.984,2.239,4.000,-78.369,334.351,-187.744
0.702,2.166,4.000,-82.703,278.503,-175.354
0.545,2.088,3.869,-71.594,236.816,-156.189
0.316,2.315,4.000,-48.706,207.947,-135.254
0.661,2.206,1.744,-62.866,214.783,-119.568
0.304,1.820,3.274,-111.694,99.365,-100.342
0.351,1.724,2.640,-82.825,105.347,-83.557
0.336,1.497,1.970,-85.327,105.103,-72.388
0.265,1.338,2.044,-80.139,58.655,-59.448
0.267,1.150,1.871,-69.458,20.447,-49.316
0.333,1.100,1.879,-50.293,17.761,-40.771
0.283,1.002,1.812,-32.166,34.302,-30.884
0.321,0.829,1.424,-23.621,37.598,-19.897
0.285,0.590,1.449,-14.160,27.649,-9.583
0.273,0.521,1.254,-6.348,34.546,-3.296
0.256,0.402,1.173,-14.587,25.757,-1.038
0.227,0.311,1.214,-25.940,19.714,-2.625
0.212,0.252,1.035,-32.898,17.822,-6.897
0.193,0.164,0.781,-31.494,9.583,-9.033
0.156,0.145,0.760,-19.043,-0.610,-7.751
0.123,0.143,0.932,14.771,-12.268,-4.028
0.146,0.164,0.719,44.556,-1.770,-1.892
0.169,0.165,0.688,41.321,2.808,-2.258
0.210,0.181,0.639,43.396,3.906,-0.854
0.246,0.247,0.652,35.583,5.188,-0.977
0.280,0.348,0.808,16.541,1.770,-5.371
0.317,0.418,0.996,8.423,1.404,-10.803
0.330,0.504,0.992,9.827,12.085,-12.878
0.322,0.564,0.974,8.545,16.846,-13.672
0.319,0.613,0.987,3.723,10.742,-13.794
0.326,0.625,0.992,-2.197,1.953,-13.489
0.339,0.635,0.940,-7.751,-4.700,-12.756
0.363,0.632,0.896,-10.986,-9.827,-11.292
0.386,0.636,0.832,-10.315,-12.634,-8.362
0.399,0.628,0.784,-7.629,-14.465,-4.578
0.403,0.609,0.780,-2.930,-15.137,-0.732
0.400,0.588,0.775,4.089,-12.878,3.540
0.392,0.575,0.741,10.925,-8.606,7.080
0.379,0.609,0.540,12.268,-6.714,9.583
0.342,0.575,0.781,-0.122,-16.602,9.338
0.328,0.553,0.792,-4.578,-15.137,8.789
0.312,0.547,0.751,-7.507,-6.348,9.155
0.301,0.513,0.731,-10.193,-3.357,9.827
0.291,0.478,0.729,-9.644,-1.953,11.780
0.287,0.447,0.740,-5.493,-1.099,13.916
0.267,0.434,0.757,0.305,-1.526,15.564
0.275,0.444,0.708,6.287,-1.221,15.991
0.269,0.449,0.714,9.766,-4.333,15.381
0.263,0.463,0.733,10.010,-7.446,13.489
0.260,0.468,0.765,7.568,-8.972,10.437
0.263,0.477,0.721,3.784,-8.667,6.714
0.262,0.481,0.739,-1.648,-10.864,2.991
0.260,0.500,0.766,-6.287,-11.719,-0.549
0.264,0.506,0.727,-9.277,-11.780,-1.892
0.246,0.500,0.780,-9.705,-13.123,-1.160
0.244,0.498,0.783,-7.568,-12.573,0.977
0.252,0.512,0.758,-4.578,-12.024,3.906
0.257,0.513,0.776,-1.465,-13.367,6.470
0.273,0.514,0.740,-0.488,-12.634,7.385
0.265,0.517,0.786,-0.732,-12.024,6.836
0.267,0.522,0.765,0.061,-8.789,5.615
0.253,0.562,0.883,-0.977,-9.094,4.333
0.283,0.531,0.683,0.610,-6.226,3.113
0.260,0.548,0.772,-0.061,-5.737,3.174
0.248,0.541,0.804,0.122,-6.531,3.418
0.263,0.521,0.745,0.122,-5.066,3.540
0.237,0.516,0.773,-0.183,-4.456,3.601
0.238,0.523,0.787,0.671,-4.883,3.479
0.244,0.494,0.733,1.709,-5.798,3.784
0.229,0.498,0.774,4.150,-5.981,5.249
0.227,0.489,0.777,5.371,-6.348,5.676
0.224,0.490,0.785,5.615,-6.531,5.615
0.227,0.493,0.778,5.737,-6.165,5.005
0.230,0.497,0.778,5.371,-5.798,4.089
0.228,0.505,0.785,3.723,-5.066,2.563
0.231,0.509,0.784,0.305,-4.395,1.282
0.234,0.510,0.771,-2.747,-3.906,0.000
0.240,0.500,0.763,-5.188,-3.723,-0.610
0.234,0.490,0.762,-6.958,-4.333,-0.732
0.232,0.488,0.761,-6.897,-5.188,-0.244
0.234,0.493,0.754,-4.944,-5.920,0.916
0.243,0.497,0.743,-3.418,-6.592,1.892
0.245,0.503,0.744,-4.089,-6.775,1.526
0.248,0.508,0.749,-5.188,-6.592,0.977
0.245,0.512,0.760,-6.104,-6.042,0.732
0.242,0.516,0.767,-6.531,-5.249,0.305
0.236,0.523,0.783,-5.188,-4.333,0.488
0.229,0.524,0.788,-2.808,-3.357,1.099
0.223,0.525,0.797,-1.282,-2.808,1.709
0.217,0.524,0.793,-0.366,-3.113,2.258
0.205,0.525,0.807,0.488,-3.784,3.113
0.205,0.522,0.795,0.977,-4.761,3.784
0.208,0.520,0.780,1.648,-6.042,4.639
0.209,0.522,0.786,1.404,-7.935,5.127
0.206,0.526,0.784,0.610,-8.789,4.883
0.201,0.531,0.791,-0.793,-9.949,4.517
0.207,0.532,0.783,-1.587,-10.193,4.272
0.208,0.531,0.781,-3.113,-9.705,3.174
0.209,0.531,0.775,-3.784,-8.911,2.319

0.733,-0.998,-1.306,-53.040,62.317,-152.344
0.975,-1.081,-1.469,-50.598,84.045,-175.049
1.206,-1.112,-1.569,-39.673,113.464,-203.308
1.433,-1.082,-1.633,-20.874,155.518,-234.375
1.632,-1.047,-1.684,4.395,213.684,-264.282
1.784,-0.984,-1.578,33.813,278.503,-292.297
1.921,-0.903,-1.333,69.580,346.191,-314.514
2.069,-0.840,-0.979,109.253,412.292,-333.252
2.196,-0.708,-0.107,204.651,519.836,-330.017
2.322,-0.532,0.482,254.822,554.382,-321.960
2.329,-0.339,1.023,305.847,577.515,-306.824
2.466,-0.081,1.598,333.130,583.679,-291.077
2.578,0.510,2.407,330.994,575.623,-276.062
2.344,1.195,3.371,286.316,553.040,-255.493
2.050,1.982,4.000,180.237,523.254,-244.263
1.503,2.350,4.000,45.471,476.990,-239.014
1.215,2.254,4.000,-62.744,410.522,-219.604
1.147,2.229,3.979,-116.394,329.590,-189.392
1.076,2.347,3.805,-121.338,256.836,-167.603
0.964,2.504,3.691,-105.652,214.233,-155.701
0.750,2.613,3.577,-87.708,190.613,-147.522
0.553,2.636,3.313,-65.857,173.401,-132.751
0.612,2.154,1.184,-56.274,179.138,-112.915
0.263,2.611,2.813,-110.962,124.146,-84.900
0.362,2.333,2.512,-91.248,73.486,-62.500
0.339,2.067,1.779,-90.454,82.764,-43.274
0.302,1.801,1.656,-89.172,57.190,-25.085
0.273,1.369,1.664,-74.463,31.372,-4.944
0.219,0.913,1.594,-52.612,39.978,11.719
0.164,0.492,1.066,-33.386,61.462,20.447
0.097,0.200,0.963,-24.414,47.852,22.644
0.036,0.010,1.171,-21.301,17.273,18.005
0.056,-0.056,1.138,-18.555,8.850,4.761
0.080,-0.029,1.085,-18.250,5.249,-11.292
0.113,0.020,1.043,-17.212,2.625,-27.893
0.155,0.134,1.066,-15.686,1.343,-42.175
0.212,0.187,0.845,-10.803,2.502,-52.368
0.260,0.279,0.697,-3.418,-0.977,-57.434
0.306,0.434,0.872,6.775,-6.836,-59.387
0.386,0.439,0.254,29.785,-1.160,-59.387
0.398,0.604,0.707,28.015,-2.869,-57.739
0.433,0.759,0.768,34.851,1.770,-51.636
0.435,0.751,0.735,43.091,7.141,-38.208
0.420,0.790,0.837,48.340,12.634,-24.231
0.414,0.805,0.941,48.218,17.029,-12.634
0.422,0.762,0.824,42.542,22.400,-5.859
0.394,0.752,0.809,26.794,20.874,-4.761
0.382,0.720,0.825,8.423,12.207,-8.179
0.396,0.637,0.611,-2.930,7.874,-12.939
0.359,0.647,0.663,-7.996,0.854,-14.954
0.371,0.654,0.693,-3.662,-5.859,-14.343
0.365,0.652,0.664,4.700,-9.094,-10.803
0.398,0.712,0.702,13.306,-10.681,-7.446
0.436,0.687,0.558,21.118,-8.423,-4.639
0.451,0.647,0.411,27.771,-3.723,-1.221
0.390,0.733,0.827,26.794,-7.019,2.808
0.413,0.666,0.730,27.527,-2.319,5.310
0.380,0.692,0.782,25.940,3.357,10.986
0.346,0.626,0.844,24.719,0.732,15.137
0.337,0.589,0.738,23.804,6.531,18.799
0.314,0.553,0.747,17.944,3.784,20.325
0.315,0.509,0.681,12.939,0.244,19.836
0.308,0.489,0.695,7.812,-2.441,18.372
0.313,0.476,0.667,5.432,-3.235,16.846
0.314,0.469,0.674,5.066,-2.930,15.320
0.315,0.476,0.683,6.714,-1.831,14.404
0.310,0.488,0.694,10.681,-0.122,13.916
0.308,0.500,0.682,15.320,1.648,14.465
0.318,0.523,0.662,17.944,1.160,15.564
0.313,0.510,0.663,18.372,-1.160,16.663
0.302,0.518,0.756,18.738,-4.089,17.761
0.305,0.502,0.756,18.982,-6.714,18.311
0.303,0.499,0.768,19.470,-7.019,19.165
0.309,0.484,0.758,18.982,-5.615,19.165
0.305,0.469,0.763,16.724,-4.211,18.433
0.297,0.458,0.762,14.099,-2.686,17.029
0.295,0.446,0.755,11.230,-1.160,14.282
0.292,0.449,0.767,7.690,-0.122,10.376
0.294,0.461,0.767,4.822,1.282,6.470
0.289,0.479,0.769,3.296,2.563,3.479
0.285,0.496,0.779,3.540,2.808,2.319
0.286,0.509,0.781,5.005,2.380,3.174
0.288,0.504,0.775,6.226,1.770,4.028
0.285,0.521,0.804,7.690,1.526,5.249
0.298,0.516,0.745,8.179,1.160,6.348
0.292,0.517,0.793,6.592,-2.075,7.019
0.287,0.501,0.833,7.263,-3.601,7.751
0.288,0.497,0.802,10.376,-0.793,8.484
0.294,0.489,0.781,9.583,0.122,7.874
0.285,0.481,0.805,6.165,-2.319,6.348
0.288,0.484,0.800,4.150,-2.197,4.761
0.296,0.480,0.773,1.648,-1.343,2.747
0.280,0.489,0.762,-1.221,-1.160,1.587
0.293,0.484,0.754,-2.686,-0.793,0.732
0.294,0.483,0.746,-3.113,-0.061,0.427
0.291,0.483,0.744,-1.465,0.305,0.916
0.295,0.482,0.753,1.038,0.732,2.197
0.293,0.481,0.770,3.479,1.160,3.357
0.290,0.481,0.778,5.554,1.587,3.906
0.280,0.484,0.793,6.042,1.099,4.333
0.275,0.487,0.807,5.005,0.061,4.089
0.275,0.487,0.796,4.456,-1.038,4.028
0.281,0.490,0.779,3.784,-2.441,3.967
0.278,0.497,0.797,2.808,-4.150,3.357
0.281,0.496,0.790,2.258,-3.662,2.747
0.284,0.500,0.778,1.221,-2.380,2.075
0.279,0.506,0.775,-0.427,-1.404,1.160
0.272,0.499,0.786,-1.404,-0.671,0.549
0.263,0.493,0.790,-2.380,-0.244,0.549
0.261,0.490,0.786,-2.930,-0.183,0.366
0.263,0.491,0.786,-2.563,-0.793,0.122
0.261,0.497,0.785,-2.075,-1.709,0.122
0.262,0.499,0.784,-1.526,-2.319,0.488
0.265,0.503,0.774,-0.488,-2.808,1.343
0.270,0.504,0.768,0.427,-3.235,1.709
0.272,0.500,0.771,0.183,-3.174,1.465
0.275,0.496,0.778,-0.549,-2.869,0.732
0.272,0.498,0.780,0.122,-3.052,0.549
0.272,0.506,0.779,2.625,-3.052,1.099

0.644,-1.268,-1.612,-101.746,18.860,-132.202
0.879,-1.393,-1.839,-109.497,43.274,-171.326
1.118,-1.493,-2.110,-101.013,85.327,-215.271
1.460,-1.354,-2.097,-19.287,198.975,-291.931
1.671,-1.210,-1.813,46.875,265.320,-313.354
1.812,-1.078,-1.410,115.540,329.590,-319.397
1.792,-0.932,-0.890,172.424,382.874,-311.401
1.846,-0.832,-0.365,218.262,429.687,-295.654
1.843,-0.755,0.048,252.136,471.802,-275.513
1.833,-0.616,0.420,273.071,500.977,-253.967
1.799,-0.490,0.869,282.166,513.306,-235.229
1.823,-0.127,1.212,274.048,512.756,-218.506
1.761,0.291,1.771,247.314,501.160,-205.322
1.696,0.666,2.293,195.496,488.770,-195.312
1.681,0.929,2.724,118.713,477.905,-202.209
1.664,1.184,2.888,32.898,470.215,-228.821
1.501,1.507,2.996,-33.386,448.364,-246.094
1.466,1.666,3.258,-49.194,409.424,-237.427
1.370,1.864,3.403,-45.166,372.253,-203.552
1.135,2.032,3.470,-27.039,337.952,-159.851
0.987,2.119,3.392,5.249,304.199,-112.305
0.828,2.317,3.481,34.485,274.841,-69.763
0.763,2.239,3.136,34.241,258.423,-52.124
0.563,2.290,3.428,18.677,235.413,-41.077
0.814,1.746,0.713,-8.789,250.183,-43.152
0.310,1.765,2.766,-85.205,178.711,-37.048
0.285,1.647,2.840,-76.294,122.375,-31.738
0.241,1.461,2.330,-68.054,125.305,-30.029
0.138,1.424,2.204,-61.523,106.445,-28.442
0.100,1.336,2.191,-59.082,75.439,-27.283
0.105,1.235,2.017,-56.580,61.218,-28.137
0.099,1.077,1.677,-55.969,55.298,-28.015
0.126,0.901,1.471,-53.833,39.856,-22.644
0.126,0.728,1.368,-49.561,24.841,-14.160
0.129,0.607,1.370,-45.715,19.409,-7.690
0.150,0.441,0.855,-41.138,25.757,-6.226
0.115,0.388,1.055,-46.143,12.573,-6.958
0.133,0.263,0.933,-43.640,9.460,-11.108
0.096,0.254,1.003,-37.537,16.785,-15.564
0.116,0.201,0.774,-26.794,14.648,-21.301
0.139,0.170,0.654,-14.771,10.010,-25.024
0.146,0.189,0.770,-0.427,0.549,-26.367
0.220,0.230,0.656,18.494,3.113,-26.672
0.267,0.332,0.760,30.029,0.488,-26.978
0.317,0.420,0.847,41.138,-0.732,-24.231
0.359,0.506,0.911,46.997,1.953,-20.203
0.390,0.585,0.979,44.800,3.540,-15.808
0.405,0.632,1.023,37.415,5.249,-11.780
0.412,0.664,1.025,25.940,7.874,-8.057
0.398,0.663,1.003,12.939,7.324,-5.066
0.389,0.636,0.885,2.075,4.028,-2.319
0.369,0.617,0.955,-5.676,-4.761,0.854
0.373,0.575,0.880,-4.883,-7.935,4.761
0.355,0.554,0.901,-2.502,-7.751,8.484
0.352,0.515,0.750,1.160,-6.653,11.597
0.345,0.490,0.768,4.028,-8.423,14.038
0.326,0.467,0.792,6.287,-8.484,14.587
0.330,0.432,0.757,5.859,-3.662,12.695
0.294,0.429,0.743,2.991,-1.343,10.193
0.297,0.407,0.725,1.221,-0.549,6.836
0.277,0.421,0.710,0.000,-0.244,3.418
0.273,0.433,0.710,-0.183,-0.610,0.732
0.277,0.461,0.718,0.610,0.183,-0.977
0.273,0.486,0.710,1.709,1.892,-1.892
0.279,0.497,0.715,2.014,2.258,-1.343
0.275,0.501,0.747,1.770,2.136,0.183
0.267,0.485,0.751,2.930,3.052,2.380
0.280,0.490,0.775,3.052,2.380,4.211
0.278,0.479,0.836,2.563,-1.221,4.639
0.276,0.471,0.841,3.479,-1.526,4.700
0.273,0.459,0.840,5.615,-2.502,5.127
0.258,0.465,0.868,8.972,-5.493,5.859
0.268,0.469,0.811,13.062,-7.324,6.653
0.271,0.473,0.744,15.869,-9.155,7.568
0.277,0.491,0.735,12.695,-13.123,7.263
0.273,0.490,0.855,8.911,-17.334,5.310
0.287,0.488,0.772,8.667,-8.850,3.235
0.285,0.486,0.745,6.042,-3.296,1.648
0.281,0.490,0.776,2.869,-3.540,0.427
0.280,0.492,0.804,1.404,-3.052,0.244
0.275,0.498,0.818,0.549,-1.892,0.305
0.264,0.501,0.826,-1.038,-1.404,0.000
0.260,0.501,0.848,-1.770,-1.953,-0.122
0.264,0.496,0.824,-1.038,-1.221,0.671
0.264,0.485,0.814,0.061,-1.160,2.197
0.264,0.478,0.809,2.136,-1.709,3.723
0.263,0.472,0.789,6.714,-2.197,5.981
0.259,0.471,0.789,6.714,-2.686,5.493
0.255,0.464,0.789,6.470,-3.296,5.432
0.257,0.451,0.782,6.287,-4.272,5.249
0.258,0.454,0.801,4.395,-5.127,5.005
0.255,0.438,0.782,2.319,-5.188,4.272
0.242,0.441,0.819,0.671,-4.272,3.662
0.237,0.442,0.823,-0.549,-3.235,2.563
0.247,0.443,0.758,-0.916,-2.502,1.831
0.246,0.445,0.801,-1.831,-4.700,1.038
0.252,0.448,0.788,-1.587,-4.517,0.366
0.256,0.447,0.768,-1.160,-4.395,0.183
0.258,0.458,0.751,0.244,-4.272,-0.061
0.275,0.447,0.695,0.732,-4.333,-0.549
0.267,0.464,0.782,-0.488,-4.944,-1.099
0.265,0.476,0.762,-1.526,-2.808,-2.075
0.258,0.477,0.782,-2.075,-0.671,-3.113
0.257,0.482,0.748,-1.770,0.916,-2.747
0.252,0.478,0.795,-2.136,-1.160,-2.258
0.257,0.482,0.772,-0.854,0.427,-1.282
0.261,0.486,0.769,0.549,0.366,-0.427
0.259,0.491,0.788,1.831,0.183,0.122
0.257,0.495,0.793,2.930,1.282,0.305
0.253,0.495,0.788,3.174,1.282,1.038
0.249,0.490,0.811,1.831,-0.305,1.282
0.247,0.483,0.817,0.427,-0.732,1.038
0.244,0.479,0.817,-0.366,-1.099,0.427
0.240,0.476,0.819,-1.282,-1.831,-0.366
0.238,0.473,0.816,-1.953,-2.625,-1.099
0.243,0.471,0.804,-3.601,-3.662,-1.343
0.248,0.469,0.797,-4.944,-3.967,-1.709
0.252,0.463,0.788,-5.737,-4.211,-2.136
0.256,0.461,0.780,-5.310,-4.395,-2.136

0.464,-1.406,-1.413,-135.254,-61.707,-82.581
0.668,-1.768,-1.667,-127.136,-48.828,-93.262
0.763,-1.957,-1.955,-96.069,-24.597,-112.488
0.937,-2.039,-2.101,-46.936,12.878,-147.400
1.202,-1.980,-2.126,12.634,67.017,-195.374
1.499,-1.789,-2.077,61.340,135.742,-246.155
1.768,-1.551,-1.890,97.351,209.106,-293.579
1.952,-1.277,-1.596,124.756,276.550,-330.383
2.092,-1.115,-1.310,154.968,336.975,-351.501
2.167,-0.936,-0.939,181.946,389.526,-354.553
2.273,-0.841,-0.490,214.844,437.073,-343.750
2.236,-0.697,-0.031,254.272,480.957,-325.256
2.285,-0.501,0.360,293.457,517.334,-304.199
2.318,-0.178,0.911,319.397,540.405,-282.898
2.307,0.344,1.682,326.965,549.072,-263.916
1.979,1.371,3.186,238.831,538.879,-239.319
1.844,1.788,3.455,150.452,529.663,-244.507
1.517,2.089,3.876,58.655,494.385,-243.958
1.204,2.112,4.000,-13.733,434.143,-226.746
0.963,1.995,4.000,-40.588,373.718,-196.655
0.766,1.869,3.672,-27.344,319.336,-160.339
0.681,1.867,3.327,-4.272,266.052,-127.747
0.694,1.912,3.089,7.996,218.079,-107.178
0.664,1.880,2.917,15.076,191.223,-99.548
0.582,1.832,2.719,21.301,188.538,-96.436
0.624,1.635,2.521,18.738,190.613,-93.628
0.167,1.606,3.990,46.387,192.871,-101.685
0.604,1.606,1.332,11.047,221.252,-92.102
0.369,1.461,2.265,-39.856,166.077,-94.849
0.397,1.352,1.946,-70.313,161.682,-90.332
0.333,1.314,1.968,-102.966,148.254,-96.680
0.424,1.134,2.239,-114.075,129.028,-95.886
0.421,1.010,1.758,-75.134,137.939,-93.872
0.357,0.993,1.623,-37.109,126.892,-80.811
0.223,1.069,1.687,1.953,102.905,-65.735
0.202,1.085,1.788,40.283,79.407,-41.138
0.292,0.997,1.415,69.214,54.993,-7.507
0.360,0.950,1.352,62.195,36.621,10.437
0.344,0.753,0.896,22.644,17.822,5.371
0.253,0.555,1.033,-15.625,-1.099,-3.113
0.260,0.313,0.807,-30.701,6.592,-7.690
0.243,0.221,0.592,-32.593,9.766,-4.578
0.213,0.170,0.836,-17.334,-11.841,1.587
0.211,0.138,0.976,13.855,-14.465,6.409
0.252,0.219,0.844,40.283,3.601,8.606
0.261,0.279,0.758,50.659,14.893,6.409
0.284,0.273,0.805,46.570,13.489,1.282
0.306,0.325,0.805,36.377,12.939,-2.625
0.340,0.383,0.847,25.269,10.986,-5.127
0.357,0.459,0.840,18.005,9.827,-5.737
0.342,0.486,0.860,13.367,6.897,-3.235
0.348,0.508,0.819,11.658,3.113,2.808
0.347,0.501,0.897,6.165,-4.089,6.409
0.353,0.499,0.911,1.343,-6.775,7.202
0.357,0.500,0.903,-3.723,-8.606,6.104
0.369,0.491,0.833,-9.033,-11.841,3.418
0.355,0.465,0.813,-10.742,-13.855,1.160
0.371,0.531,0.838,-7.263,-12.329,0.549
0.377,0.510,0.681,-2.258,-10.010,1.770
0.365,0.538,0.770,0.793,-11.230,4.333
0.375,0.545,0.732,4.578,-9.583,6.409
0.368,0.529,0.721,5.432,-7.202,8.362
0.364,0.523,0.715,3.906,-4.517,9.521
0.359,0.501,0.705,1.526,-3.296,10.376
0.341,0.490,0.775,-1.221,-2.747,10.315
0.327,0.471,0.771,-1.465,0.122,10.071
0.313,0.461,0.774,-2.625,1.648,9.766
0.301,0.450,0.793,-4.028,0.854,8.606
0.293,0.455,0.741,-4.944,-1.526,7.141
0.266,0.473,0.836,-4.089,-9.277,7.141
0.281,0.485,0.797,2.197,-13.611,9.033
0.292,0.502,0.762,6.409,-16.907,11.536
0.294,0.518,0.791,6.897,-21.667,12.817
0.301,0.522,0.810,7.629,-23.010,13.000
0.309,0.509,0.776,7.874,-20.325,12.634
0.309,0.509,0.770,6.042,-18.738,12.329
0.309,0.500,0.773,3.052,-17.273,11.169
0.299,0.493,0.800,-0.488,-15.930,10.193
0.295,0.481,0.791,-1.221,-14.587,9.644
0.291,0.482,0.792,-0.183,-13.794,9.644
0.284,0.483,0.769,0.793,-12.878,9.155
0.272,0.473,0.769,0.793,-11.475,8.240
0.259,0.470,0.831,-0.793,-10.315,6.958
0.256,0.454,0.730,0.732,-8.850,6.042
0.246,0.472,0.828,2.136,-12.146,6.714
0.259,0.477,0.808,5.859,-11.719,7.080
0.266,0.472,0.768,7.568,-7.385,6.531
0.262,0.459,0.758,6.836,-5.676,6.287
0.256,0.461,0.762,4.089,-7.690,5.981
0.249,0.449,0.799,2.808,-10.254,6.409
0.245,0.447,0.782,4.456,-8.545,7.141
0.251,0.446,0.750,4.211,-6.348,6.897
0.258,0.437,0.747,1.404,-5.615,5.371
0.256,0.436,0.752,0.000,-3.723,4.089
0.253,0.435,0.761,-0.244,-1.953,3.113
0.262,0.440,0.718,0.183,-0.549,2.319
0.270,0.445,0.750,-0.916,-0.916,1.160
0.266,0.461,0.775,-0.793,-0.061,0.244
0.266,0.462,0.751,0.244,0.977,-0.061
0.259,0.492,0.771,1.892,0.854,1.099
0.256,0.492,0.820,0.854,-0.244,1.160
0.252,0.495,0.809,0.183,1.526,1.099
0.251,0.477,0.779,-0.793,-0.061,1.221
0.248,0.474,0.808,-0.488,-1.587,1.831
0.254,0.477,0.787,0.122,-0.916,1.343
0.250,0.473,0.818,0.000,-0.977,1.282
0.246,0.463,0.802,0.305,-0.977,1.099
0.244,0.467,0.810,1.953,-1.221,1.709
0.248,0.471,0.769,3.540,-1.282,2.441
0.249,0.473,0.761,2.625,-1.587,2.197
0.250,0.483,0.763,0.000,-1.648,1.160
0.240,0.476,0.778,-1.343,-2.258,1.099
0.239,0.469,0.776,-0.977,-2.136,1.953
0.244,0.462,0.779,0.366,-1.953,3.174
0.233,0.466,0.773,1.343,-2.014,3.601
0.238,0.460,0.780,1.892,-1.404,3.052
0.242,0.466,0.778,2.136,-0.366,1.892
0.243,0.467,0.781,2.136,0.427,1.099
0.240,0.470,0.796,1.160,0.732,-0.122

0.328,-1.257,-1.530,-98.145,0.000,-108.093
0.574,-1.391,-1.749,-95.276,17.944,-134.094
0.859,-1.508,-1.888,-78.247,51.086,-163.635
1.191,-1.607,-2.015,-52.063,94.788,-193.726
1.449,-1.675,-2.018,-19.409,143.738,-222.473
1.670,-1.706,-1.985,17.090,199.036,-246.338
1.880,-1.690,-1.798,56.458,256.348,-268.127
2.052,-1.576,-1.464,96.130,313.232,-290.161
2.242,-1.408,-1.261,133.972,369.263,-312.744
2.346,-1.169,-0.900,162.476,418.762,-332.764
2.469,-0.936,-0.517,190.979,465.942,-347.534
2.468,-0.553,-0.125,223.022,506.836,-352.661
2.454,-0.167,0.426,248.962,533.630,-351.135
2.423,0.196,0.969,261.414,546.753,-338.684
2.347,0.579,1.562,249.207,553.223,-319.580
2.461,0.937,2.088,233.337,562.195,-303.528
2.651,1.275,2.664,218.201,569.946,-293.701
2.549,1.824,3.590,189.941,555.298,-273.682
1.781,2.076,4.000,163.757,507.568,-215.698
1.245,1.992,4.000,137.268,436.096,-137.634
1.109,1.820,4.000,83.801,349.854,-93.079
1.165,1.757,3.996,10.620,262.878,-93.262
1.192,1.703,3.575,-54.626,202.026,-117.371
1.099,1.661,3.402,-89.966,167.908,-141.052
1.133,1.660,3.124,-71.228,160.034,-148.682
0.700,1.640,2.922,17.029,182.800,-142.273
0.657,1.979,3.527,59.448,179.932,-107.544
0.974,1.719,1.284,26.611,172.852,-88.562
0.536,1.830,2.506,-65.430,96.375,-75.317
0.605,1.645,2.136,-89.661,79.163,-72.510
0.483,1.453,1.975,-96.741,61.157,-51.636
0.397,0.983,1.856,-69.214,64.331,-34.302
0.267,0.822,1.782,-34.119,55.664,-16.907
0.192,0.658,1.693,-5.737,37.109,-3.784
0.164,0.557,1.624,6.226,16.968,2.747
0.169,0.442,1.358,2.686,2.014,1.953
0.135,0.322,1.214,-7.812,-4.028,-5.310
0.103,0.279,0.989,-25.635,-3.540,-15.381
0.074,0.231,0.852,-37.415,-16.907,-23.132
0.066,0.215,0.807,-32.715,-25.391,-25.085
0.061,0.244,0.561,-20.752,-19.653,-26.367
0.063,0.278,0.768,-12.268,-26.245,-27.466
0.153,0.211,0.724,3.540,-18.250,-27.710
0.185,0.339,0.625,15.381,3.296,-23.865
0.231,0.361,0.747,15.869,5.737,-21.545
0.252,0.483,0.783,21.057,13.916,-18.311
0.298,0.607,0.826,22.278,17.761,-16.724
0.323,0.752,0.964,16.663,18.433,-13.733
0.349,0.776,0.953,9.155,20.813,-8.484
0.358,0.778,0.868,-3.601,21.790,-3.174
0.346,0.720,0.957,-15.625,13.428,2.686
0.346,0.637,0.886,-18.799,11.108,7.812
0.366,0.597,0.796,-19.531,10.498,10.498
0.392,0.556,0.724,-19.470,6.409,10.132
0.360,0.520,0.837,-16.663,2.075,9.094
0.356,0.504,0.811,-9.399,5.371,8.484
0.344,0.535,0.855,-2.686,5.798,10.742
0.344,0.466,0.737,1.465,-0.793,14.099
0.336,0.458,0.838,2.380,-6.226,16.968
0.349,0.443,0.795,3.052,-4.395,16.785
0.349,0.429,0.689,4.089,-1.282,15.991
0.344,0.415,0.684,2.319,-2.625,14.038
0.342,0.415,0.730,0.366,-2.380,11.475
0.333,0.421,0.723,0.793,2.380,8.301
0.333,0.440,0.672,0.732,5.859,5.249
0.305,0.450,0.740,0.610,4.883,2.625
0.283,0.480,0.777,4.150,5.859,2.747
0.281,0.492,0.753,7.202,3.662,4.028
0.273,0.510,0.821,8.850,-2.197,5.920
0.267,0.512,0.832,10.010,-6.104,8.301
0.270,0.506,0.802,8.606,-9.827,10.742
0.280,0.499,0.791,4.517,-14.771,11.597
0.285,0.486,0.801,1.343,-18.799,11.719
0.288,0.471,0.788,0.916,-17.883,11.353
0.290,0.462,0.756,2.563,-13.794,10.681
0.290,0.453,0.714,4.700,-10.315,10.193
0.282,0.460,0.743,5.310,-8.667,9.521
0.282,0.457,0.740,7.385,-6.714,8.728
0.278,0.459,0.749,10.193,-3.601,8.728
0.273,0.456,0.754,10.803,-1.099,7.996
0.262,0.453,0.774,8.789,-0.366,7.324
0.254,0.470,0.814,5.554,-0.305,6.958
0.249,0.474,0.826,2.991,-0.854,6.287
0.247,0.463,0.805,0.671,-1.892,4.944
0.241,0.468,0.832,-0.854,-3.967,4.333
0.252,0.465,0.775,-1.038,-4.944,3.906
0.254,0.477,0.798,-0.305,-5.493,4.028
0.259,0.481,0.787,1.770,-4.578,3.906
0.257,0.488,0.781,2.441,-2.869,3.296
0.254,0.499,0.793,2.319,-2.014,2.319
0.253,0.509,0.789,2.747,-1.099,1.831
0.249,0.518,0.834,2.136,-0.488,1.404
0.259,0.507,0.794,2.563,0.732,1.770
0.253,0.500,0.835,3.113,1.038,2.869
0.255,0.483,0.789,4.944,1.526,3.845
0.246,0.484,0.829,6.775,0.488,5.310
0.259,0.469,0.805,9.460,-0.427,7.324
0.253,0.449,0.783,9.705,-1.587,7.812
0.246,0.440,0.794,8.179,-2.319,6.714
0.247,0.441,0.777,6.470,-2.625,5.127
0.247,0.450,0.792,3.479,-3.784,3.662
0.258,0.458,0.784,-0.122,-4.211,1.648
0.260,0.458,0.772,-1.404,-3.174,0.793
0.259,0.465,0.770,-1.648,-2.075,0.427
0.260,0.465,0.803,-2.075,-2.380,0.732
0.266,0.468,0.781,-1.709,-0.610,0.916
0.262,0.468,0.816,-2.197,-0.854,0.916
0.263,0.468,0.786,-1.526,0.000,0.732
0.256,0.473,0.813,-0.977,-0.549,1.404
0.257,0.470,0.790,-0.061,-0.244,1.587
0.244,0.484,0.841,0.977,-1.221,2.625
0.259,0.469,0.745,2.686,-1.282,3.479
0.256,0.463,0.774,2.563,-2.563,3.906
0.255,0.481,0.852,1.404,-2.930,3.418
0.251,0.479,0.757,0.916,-2.319,2.991
0.251,0.464,0.819,0.122,-3.418,2.380
0.258,0.466,0.801,0.488,-2.869,2.319
0.253,0.465,0.815,-0.366,-2.747,2.075
0.251,0.465,0.821,-0.977,-2.808,1.587

0.548,-1.524,-1.543,-110.229,-73.792,-37.720
0.756,-1.804,-1.906,-109.863,-63.232,-70.679
1.025,-1.959,-2.220,-87.891,-32.715,-123.230
1.325,-1.965,-2.461,-49.683,23.743,-191.956
1.601,-1.801,-2.576,-6.470,104.248,-262.573
1.931,-1.557,-2.469,36.682,193.848,-323.120
2.199,-1.226,-2.111,77.942,280.151,-365.417
2.418,-0.985,-1.774,123.596,358.215,-386.353
2.555,-0.722,-1.300,163.635,423.218,-388.306
2.641,-0.577,-0.829,199.768,479.187,-373.047
2.644,-0.410,-0.284,231.934,529.358,-342.346
2.681,-0.236,0.278,264.343,576.050,-303.894
2.621,-0.014,0.812,296.936,612.549,-258.423
2.631,0.219,1.544,316.284,631.592,-216.675
2.764,0.506,2.394,315.674,645.447,-193.970
2.612,1.140,3.402,279.358,648.926,-195.923
2.339,2.195,4.000,182.068,620.911,-212.646
1.562,2.939,4.000,52.673,548.950,-212.036
1.030,2.791,4.000,-90.027,433.899,-179.504
1.064,2.155,4.000,-179.504,300.903,-139.282
1.096,1.367,4.000,-131.409,229.980,-115.051
1.054,1.282,3.589,-65.247,202.515,-93.140
0.970,1.452,3.092,8.606,191.650,-88.379
0.678,1.836,3.449,43.945,170.410,-86.792
0.477,2.145,3.950,38.635,150.574,-92.468
0.462,2.108,2.396,-7.935,146.606,-104.919
0.266,1.967,2.968,-96.802,67.810,-121.155
0.316,1.825,2.409,-118.896,47.119,-133.545
0.327,1.674,1.743,-136.658,39.185,-133.728
0.179,1.862,2.085,-132.080,10.376,-103.455
0.191,1.454,2.357,-62.622,29.358,-44.800
0.172,1.309,1.536,57.678,-25.024,10.193
0.381,1.203,1.048,29.480,-31.799,22.034
0.435,0.842,0.749,-38.330,-7.507,1.465
0.257,0.417,1.053,-83.008,-7.812,-16.785
0.182,0.076,0.985,-66.162,6.653,-12.451
0.144,-0.063,0.509,-29.541,28.748,0.000
0.080,-0.038,0.612,-4.639,19.348,10.559
0.052,0.006,0.616,28.137,10.498,13.306
0.044,0.088,0.755,49.133,8.057,6.287
0.069,0.096,0.913,54.626,7.446,-7.812
0.130,0.182,0.921,47.729,17.883,-22.095
0.192,0.276,0.915,34.851,22.888,-32.654
0.258,0.372,0.980,21.606,19.226,-39.124
0.297,0.494,0.880,9.399,10.742,-40.649
0.307,0.590,0.862,-4.822,-5.493,-38.269
0.308,0.665,0.850,-14.832,-21.851,-31.616
0.324,0.701,0.792,-19.287,-28.503,-23.193
0.309,0.738,0.953,-19.226,-24.109,-16.541
0.343,0.699,0.635,-16.113,-7.141,-12.390
0.309,0.659,0.641,-18.188,-2.319,-8.728
0.298,0.621,0.622,-18.372,-2.686,-5.981
0.296,0.611,0.624,-15.625,-1.221,-3.662
0.286,0.612,0.645,-12.939,1.221,-3.845
0.275,0.610,0.645,-9.705,4.333,-4.517
0.262,0.635,0.687,-6.042,9.033,-4.517
0.251,0.673,0.686,-5.493,13.000,-3.723
0.237,0.667,0.697,-5.249,12.390,-2.014
0.230,0.662,0.723,-2.869,8.545,2.258
0.218,0.643,0.828,-0.122,5.127,6.836
0.219,0.622,0.837,4.944,5.981,11.536
0.210,0.601,0.845,9.705,6.104,16.357
0.210,0.592,0.846,11.902,5.432,19.531
0.216,0.590,0.851,10.132,3.174,20.752
0.218,0.569,0.837,7.202,1.099,20.386
0.231,0.538,0.771,3.479,-1.282,18.677
0.189,0.548,0.768,-1.831,-5.615,16.357
0.200,0.533,0.744,-6.409,-10.315,12.756
0.207,0.528,0.745,-9.033,-13.062,9.521
0.222,0.528,0.715,-6.531,-10.925,7.385
0.231,0.520,0.728,-1.282,-8.362,6.897
0.245,0.517,0.711,5.127,-2.930,7.629
0.258,0.524,0.643,9.277,0.549,8.850
0.239,0.531,0.734,8.789,-2.075,9.216
0.241,0.528,0.768,9.705,-1.770,8.850
0.233,0.532,0.758,8.545,1.892,7.996
0.205,0.530,0.774,7.141,2.869,8.057
0.196,0.518,0.792,6.775,2.014,8.972
0.194,0.499,0.741,7.019,1.099,9.949
0.184,0.513,0.790,4.761,-2.380,9.888
0.195,0.517,0.787,2.563,-6.409,8.423
0.202,0.515,0.771,2.991,-6.531,7.141
0.208,0.526,0.715,3.845,-4.272,7.202
0.207,0.519,0.765,2.197,-7.507,7.080
0.204,0.512,0.796,4.395,-6.348,6.775
0.209,0.507,0.781,8.850,-3.235,7.263
0.214,0.515,0.771,11.108,-1.282,7.568
0.214,0.525,0.766,10.254,-1.404,7.324
0.205,0.528,0.782,7.080,-3.357,6.897
0.199,0.540,0.781,6.958,-2.747,7.385
0.203,0.534,0.758,8.423,-2.502,8.728
0.208,0.528,0.771,8.789,-3.479,9.766
0.207,0.526,0.798,8.545,-2.563,9.705
0.215,0.518,0.748,7.324,-1.099,8.301
0.213,0.511,0.763,5.676,-0.916,6.775
0.216,0.513,0.761,3.113,0.122,4.517
0.225,0.504,0.756,-0.366,-0.427,2.136
0.221,0.503,0.759,-1.770,-0.305,0.610
0.218,0.504,0.766,-1.953,0.000,0.061
0.219,0.513,0.764,-1.343,-0.366,-0.061
0.219,0.510,0.761,0.061,-1.038,0.732
0.208,0.515,0.773,1.953,-0.793,1.770
0.206,0.519,0.766,3.662,-0.366,2.930
0.208,0.514,0.777,3.601,0.305,3.418
0.208,0.509,0.787,2.136,0.793,2.930
0.203,0.512,0.792,0.854,1.648,2.197
0.205,0.506,0.795,1.282,1.892,2.441
0.203,0.506,0.797,1.587,2.075,2.502
0.200,0.502,0.797,1.404,2.075,2.258
0.193,0.500,0.810,1.465,1.648,1.892
0.187,0.504,0.807,2.625,1.648,2.197
0.184,0.507,0.793,3.296,1.282,2.380
0.189,0.510,0.797,3.418,-0.671,2.563
0.195,0.510,0.773,3.296,-2.563,2.808
0.195,0.515,0.776,3.967,-4.089,3.601
0.205,0.505,0.754,4.639,-5.310,3.845
0.203,0.514,0.777,4.333,-4.822,3.296
0.198,0.521,0.788,2.686,-3.967,1.831
0.187,0.521,0.798,1.160,-4.028,1.404

0.639,-1.300,-1.376,-93.323,-35.828,-82.520
0.890,-1.518,-1.632,-101.074,-28.198,-100.952
1.171,-1.735,-1.903,-101.929,-9.766,-127.014
1.553,-1.939,-2.161,-86.731,23.560,-164.246
1.989,-2.067,-2.362,-63.232,77.026,-207.520
2.299,-2.065,-2.521,-27.527,154.541,-256.287
2.584,-1.978,-2.475,19.714,249.573,-311.523
2.934,-1.889,-2.242,78.796,350.830,-367.004
3.248,-1.549,-1.530,139.404,446.228,-409.058
3.468,-1.202,-0.820,203.003,530.579,-432.739
3.487,-0.820,-0.066,260.437,597.839,-434.631
3.688,-0.380,0.545,318.848,647.400,-418.640
3.783,0.282,1.578,371.765,669.067,-386.536
3.623,0.977,2.931,400.208,663.086,-334.534
3.251,1.659,3.991,385.498,652.527,-267.456
2.778,2.705,4.000,296.387,632.446,-206.421
2.291,2.643,4.000,188.171,597.168,-178.467
1.664,2.641,4.000,53.040,527.466,-145.508
1.286,2.429,4.000,-84.351,463.013,-138.123
1.086,2.281,4.000,-160.034,372.925,-134.888
0.866,2.294,4.000,-162.292,290.894,-121.521
0.781,2.396,3.141,-126.038,226.074,-97.839
0.457,2.208,3.924,-46.875,166.199,-65.247
0.336,2.372,3.391,25.574,178.589,-36.682
0.253,2.222,2.710,10.071,141.235,-20.752
0.252,1.687,2.288,-29.968,96.497,-15.808
0.118,1.836,2.637,-87.585,80.078,-17.639
0.181,1.371,2.291,-90.210,50.293,-14.465
0.116,0.874,1.833,-81.238,59.448,-9.155
0.045,0.691,1.317,-65.979,46.204,-2.625
0.008,0.466,1.465,-36.255,8.423,1.160
0.079,0.353,1.173,-14.954,-2.869,-1.953
0.087,0.379,1.191,-9.155,-18.066,-8.057
0.066,0.266,1.226,-16.907,-25.452,-15.991
0.074,0.269,0.910,-41.687,-13.428,-29.114
0.007,0.246,1.134,-46.936,-33.386,-35.645
0.065,0.184,1.094,-29.480,-33.508,-40.222
0.138,0.275,0.793,-10.681,-14.587,-42.542
0.132,0.379,0.743,1.221,-11.475,-43.945
0.159,0.414,0.758,14.771,-11.292,-46.631
0.215,0.464,0.730,24.414,-10.498,-47.180
0.286,0.503,0.594,28.503,-14.282,-43.335
0.307,0.554,0.771,32.104,-25.635,-37.598
0.341,0.542,0.855,45.044,-27.161,-28.748
0.376,0.592,0.892,52.490,-14.587,-17.578
0.410,0.628,0.878,46.814,4.639,-11.719
0.398,0.602,0.793,38.757,29.297,-11.902
0.383,0.572,0.672,28.320,48.218,-14.282
0.362,0.552,0.700,9.460,53.284,-19.409
0.345,0.554,0.757,-8.728,50.110,-23.193
0.323,0.556,0.754,-21.423,42.236,-23.132
0.282,0.579,1.004,-29.114,28.503,-18.188
0.271,0.538,0.861,-19.043,22.095,-9.033
0.261,0.530,0.881,-11.353,8.423,1.770
0.293,0.513,0.830,-4.272,-5.249,8.789
0.310,0.527,0.767,-2.502,-11.841,12.573
0.312,0.531,0.789,-5.127,-13.489,11.780
0.325,0.523,0.771,-8.118,-6.226,7.812
0.290,0.512,0.758,-10.376,-1.038,2.014
0.248,0.502,0.783,-11.047,-0.122,-2.686
0.239,0.523,0.753,-9.216,-0.549,-3.967
0.242,0.538,0.720,-5.371,-3.784,-4.028
0.244,0.566,0.738,1.587,-7.080,-2.747
0.244,0.587,0.783,10.315,-7.263,-0.793
0.254,0.597,0.768,18.005,-1.831,0.793
0.247,0.608,0.780,23.010,2.625,3.479
0.219,0.600,0.864,25.452,2.258,7.202
0.208,0.578,0.893,26.245,1.038,10.559
0.218,0.551,0.879,24.475,-0.366,12.451
0.219,0.535,0.834,19.287,-3.662,11.719
0.211,0.519,0.871,9.094,-11.230,8.911
0.216,0.510,0.884,0.854,-16.113,5.737
0.230,0.508,0.858,-4.578,-15.930,3.174
0.238,0.507,0.827,-8.545,-14.160,1.099
0.235,0.504,0.811,-9.338,-12.939,0.488
0.234,0.508,0.786,-6.104,-11.292,1.526
0.235,0.512,0.767,-2.197,-9.705,3.296
0.238,0.517,0.782,1.160,-8.728,5.371
0.237,0.520,0.807,3.418,-7.202,6.348
0.241,0.517,0.815,4.395,-5.432,6.287
0.231,0.515,0.844,4.028,-4.089,5.798
0.221,0.515,0.854,3.174,-3.357,5.005
0.209,0.509,0.860,2.319,-3.479,4.578
0.209,0.500,0.852,2.502,-4.089,5.066
0.208,0.487,0.842,2.625,-4.639,5.066
0.207,0.483,0.826,3.601,-4.944,4.883
0.205,0.482,0.812,5.188,-4.700,4.517
0.202,0.485,0.807,6.470,-4.944,4.150
0.204,0.487,0.802,6.348,-5.066,3.479
0.203,0.488,0.815,4.517,-5.798,3.662
0.201,0.462,0.809,4.333,-5.554,3.784
0.205,0.463,0.800,5.981,-6.042,4.639
0.206,0.469,0.802,6.714,-6.775,4.944
0.208,0.475,0.806,5.310,-7.507,4.272
0.212,0.470,0.794,3.479,-7.812,3.906
0.211,0.473,0.795,0.610,-8.850,3.235
0.214,0.473,0.786,-1.831,-9.766,2.075
0.217,0.478,0.775,-3.967,-10.193,0.732
0.224,0.479,0.771,-5.920,-10.010,-0.305
0.225,0.479,0.769,-7.263,-8.972,-1.465
0.222,0.480,0.773,-6.287,-7.812,-1.770
0.217,0.486,0.778,-4.883,-7.080,-1.648
0.212,0.494,0.779,-3.479,-7.141,-1.038
0.204,0.500,0.783,-2.502,-7.874,0.183
0.205,0.495,0.776,-2.441,-9.338,1.465
0.207,0.485,0.775,-3.235,-10.986,2.075
0.209,0.472,0.767,-3.296,-12.268,2.991
0.204,0.469,0.751,-2.136,-12.329,4.028
0.203,0.469,0.746,-0.305,-12.085,4.883
0.195,0.474,0.751,1.587,-11.841,5.676
0.188,0.473,0.761,1.587,-11.536,5.493
0.186,0.472,0.768,-0.122,-11.108,4.333
0.174,0.478,0.780,-1.465,-10.437,3.113
0.162,0.486,0.792,-2.869,-10.498,2.075
0.153,0.492,0.804,-4.761,-11.658,1.587
0.155,0.499,0.810,-6.348,-13.794,2.075
0.163,0.509,0.817,-7.629,-16.785,2.441
0.169,0.520,0.817,-8.545,-19.531,2.136
0.172,0.525,0.808,-8.362,-20.874,2.319

