aX,aY,aZ,gX,gY,gZ
1.154,0.512,0.985,-122.131,355.896,5.554
1.357,0.532,1.035,-124.878,362.122,11.047
1.638,0.488,1.294,-132.874,359.253,12.756
1.835,0.478,1.683,-152.527,341.187,8.484
1.868,0.546,1.889,-188.110,315.308,0.427
1.913,0.678,2.096,-224.609,285.583,-8.728
1.896,0.681,2.345,-222.473,250.793,-21.912
1.868,0.698,2.346,-203.491,226.257,-30.640
1.819,0.778,2.479,-153.870,180.542,-36.072
1.601,0.777,2.648,-101.868,128.723,-37.537
1.517,0.801,2.134,-66.711,115.723,-38.635
1.416,0.785,1.785,-24.658,105.591,-37.292
1.275,0.762,1.634,26.062,69.092,-31.616
1.113,0.692,1.398,51.392,40.222,-25.818
0.995,0.645,1.375,50.537,21.179,-18.005
0.945,0.651,1.368,34.851,20.142,-10.193
0.908,0.612,1.328,13.977,29.114,-6.104
0.891,0.576,1.187,-2.563,33.325,-4.700
0.863,0.529,1.301,-7.507,25.330,-2.869
0.841,0.524,1.432,-9.705,16.602,1.709
0.806,0.519,1.481,-12.756,17.395,3.967
0.763,0.491,1.452,-10.315,19.165,3.174
0.756,0.444,1.439,2.747,11.536,2.502
0.692,0.456,1.302,16.663,0.793,2.930
0.629,0.411,1.171,28.564,-19.592,2.686
0.577,0.386,1.135,32.837,-39.856,3.418
0.558,0.377,1.043,28.015,-44.739,3.845
0.514,0.336,0.934,23.193,-39.551,2.869
0.488,0.323,0.886,23.499,-38.086,1.709
0.468,0.322,0.865,26.001,-36.499,1.038
0.447,0.315,0.868,26.001,-32.654,2.441
0.436,0.293,0.854,24.048,-28.625,3.845
0.430,0.287,0.850,20.813,-26.855,4.578
0.426,0.283,0.852,18.127,-26.001,5.371
0.415,0.285,0.880,17.578,-25.879,6.287
0.416,0.281,0.895,17.334,-26.489,7.263
0.409,0.279,0.886,16.846,-26.917,7.812
0.444,0.273,0.917,16.907,-27.710,8.057
0.463,0.261,0.888,18.738,-23.743,8.423
0.474,0.231,0.863,22.888,-20.142,8.118
0.485,0.207,0.842,26.611,-16.541,7.874
0.486,0.189,0.820,27.893,-12.878,7.385
0.486,0.171,0.799,26.306,-9.460,6.653
0.483,0.156,0.781,22.949,-6.714,6.165
0.473,0.148,0.766,18.311,-6.042,5.859
0.460,0.158,0.769,12.573,-6.470,5.554
0.451,0.177,0.787,6.897,-7.812,5.615
0.449,0.188,0.796,2.258,-10.071,6.165
0.460,0.188,0.799,-0.305,-12.268,6.714
0.466,0.191,0.794,-0.732,-13.672,6.348
0.487,0.212,0.792,1.526,-12.512,5.432
0.474,0.195,0.763,5.127,-10.620,4.028
0.478,0.208,0.805,7.812,-11.658,3.296
0.474,0.216,0.778,6.836,-7.935,2.625
0.470,0.204,0.762,5.310,-5.554,2.319
0.469,0.199,0.762,4.456,-5.493,2.686
0.462,0.193,0.769,4.700,-5.615,3.113
0.459,0.181,0.767,5.188,-4.456,2.991
0.458,0.174,0.768,6.104,-2.502,2.563
0.460,0.171,0.768,8.179,-1.465,2.075
0.466,0.153,0.769,9.705,0.061,1.465
0.470,0.145,0.771,9.338,-0.061,1.038
0.485,0.148,0.793,8.118,-2.747,0.488
0.490,0.157,0.812,5.920,-5.615,-0.427
0.487,0.168,0.814,4.700,-8.484,-0.916
0.485,0.175,0.806,4.944,-10.254,-1.221
0.482,0.175,0.787,5.798,-10.681,-0.916
0.479,0.180,0.768,5.737,-9.766,-0.244
0.474,0.186,0.764,5.859,-8.240,0.427
0.470,0.183,0.760,5.127,-5.676,1.404
0.476,0.176,0.754,2.808,-3.662,2.319
0.479,0.174,0.772,0.305,-2.258,2.930
0.477,0.176,0.792,-1.770,-0.488,3.052
0.475,0.178,0.807,-2.991,2.319,2.747
0.475,0.180,0.837,-2.991,3.662,2.014
0.473,0.186,0.861,-2.686,3.052,1.099
0.471,0.193,0.874,-1.526,0.854,0.122
0.466,0.200,0.870,0.549,-1.099,-0.854
0.462,0.214,0.862,2.686,-2.258,-1.404
0.456,0.217,0.851,4.089,-2.258,-1.282
0.453,0.215,0.838,4.761,-1.526,-0.977
0.452,0.212,0.826,5.127,-0.366,-0.732
0.447,0.211,0.827,3.967,0.427,0.183
0.447,0.205,0.834,2.136,0.977,1.038
0.451,0.200,0.835,0.732,1.404,1.709
0.450,0.197,0.834,-0.305,2.136,2.075
0.452,0.197,0.838,-0.549,2.869,2.258
0.453,0.200,0.850,-0.427,3.540,2.136
0.457,0.200,0.862,0.244,3.174,2.014
0.457,0.205,0.864,0.305,2.197,1.770
0.464,0.202,0.872,-0.183,0.916,2.075
0.466,0.199,0.876,-1.038,-0.061,2.197
0.474,0.195,0.878,-1.038,-1.465,2.197
0.478,0.195,0.868,-0.671,-2.136,1.953
0.480,0.189,0.858,0.366,-1.892,1.831
0.480,0.189,0.848,0.793,-0.793,1.343
0.478,0.192,0.845,-0.122,0.000,0.793
0.481,0.195,0.839,-2.014,0.793,0.061
0.476,0.199,0.852,-3.540,0.549,-0.122
0.473,0.207,0.876,-4.333,-1.160,0.122
0.474,0.210,0.878,-5.920,-2.319,0.610
0.477,0.221,0.890,-6.958,-4.089,0.610
0.471,0.229,0.884,-6.165,-5.493,0.610
0.467,0.232,0.872,-3.967,-6.165,0.549
0.463,0.235,0.863,-1.526,-5.981,0.732
0.463,0.232,0.848,1.343,-5.066,1.160
0.457,0.225,0.838,3.784,-4.211,1.465
0.454,0.220,0.825,5.127,-3.601,1.465
0.455,0.216,0.810,5.676,-3.174,1.526
0.452,0.210,0.797,4.822,-2.625,1.831
0.452,0.211,0.796,2.502,-1.953,2.136
0.458,0.208,0.803,0.183,-1.526,2.319
0.459,0.207,0.814,-1.892,-0.549,2.502
0.457,0.212,0.821,-3.479,0.183,2.625
0.458,0.213,0.836,-3.662,0.061,2.563
0.459,0.216,0.844,-3.052,-0.061,2.502
0.466,0.224,0.855,-1.526,-0.610,2.563
0.471,0.221,0.864,-0.183,-2.136,2.686
0.472,0.222,0.863,0.366,-3.723,2.563

1.154,0.719,0.925,-133.057,345.886,-3.357
1.338,0.693,1.082,-127.563,341.003,7.324
1.384,0.705,1.269,-142.151,338.501,13.672
1.425,0.715,1.359,-156.677,333.191,14.587
1.573,0.682,1.432,-156.982,328.064,17.212
1.857,0.607,1.580,-156.067,332.275,20.142
2.097,0.504,1.977,-158.203,345.398,15.503
2.296,0.580,2.471,-152.954,345.154,-5.249
2.249,0.703,2.821,-146.057,318.176,-29.602
1.977,0.818,2.991,-139.282,263.611,-42.114
1.620,0.942,3.011,-114.685,188.110,-41.504
1.395,0.900,2.634,-72.205,123.413,-34.058
1.190,0.782,2.201,-18.982,78.003,-23.865
1.006,0.716,1.867,27.649,38.696,-14.709
0.885,0.653,1.638,45.288,17.212,-10.986
0.977,0.627,1.058,38.879,39.124,-11.475
0.840,0.499,1.292,30.029,56.091,-14.343
0.902,0.553,1.163,28.870,30.396,-6.470
0.898,0.552,1.398,9.827,24.109,1.831
0.887,0.536,1.609,-10.254,27.222,9.399
0.929,0.545,1.704,-22.522,36.438,12.512
0.846,0.459,1.621,-23.926,36.011,10.132
0.792,0.404,1.790,-5.554,21.729,7.629
0.727,0.409,1.339,11.536,17.212,4.944
0.605,0.410,1.296,28.320,1.587,1.587
0.518,0.443,1.129,31.494,-10.803,1.648
0.455,0.458,0.948,28.931,-19.653,2.380
0.435,0.460,0.865,22.827,-28.259,4.578
0.414,0.463,0.834,11.230,-31.494,7.324
0.416,0.463,0.825,0.549,-28.198,8.728
0.406,0.457,0.842,-5.371,-18.677,8.606
0.418,0.439,0.872,-5.249,-6.470,9.033
0.439,0.403,0.880,-0.671,4.639,11.292
0.462,0.345,0.870,5.859,11.108,14.343
0.485,0.303,0.854,10.376,11.719,17.090
0.498,0.268,0.831,12.756,9.155,19.043
0.514,0.240,0.805,13.977,4.517,19.104
0.546,0.231,0.833,14.038,-2.319,17.517
0.542,0.244,0.834,11.597,-10.864,14.221
0.543,0.247,0.786,10.620,-19.958,10.315
0.549,0.236,0.732,13.428,-26.855,7.690
0.535,0.220,0.783,16.174,-29.663,6.470
0.560,0.219,0.688,18.005,-24.780,5.798
0.563,0.204,0.704,15.991,-16.296,4.211
0.567,0.190,0.715,13.245,-8.911,2.991
0.564,0.182,0.730,10.559,-4.761,2.563
0.564,0.174,0.744,8.118,-3.784,2.380
0.566,0.167,0.761,6.531,-3.235,2.075
0.556,0.174,0.774,5.676,-3.357,0.671
0.523,0.192,0.770,5.798,-3.784,-1.587
0.497,0.221,0.736,6.592,-4.883,-3.662
0.479,0.257,0.712,6.409,-6.348,-4.639
0.458,0.292,0.699,5.737,-6.348,-4.944
0.438,0.318,0.696,4.517,-4.456,-4.272
0.426,0.324,0.699,3.296,-1.526,-2.747
0.430,0.312,0.712,2.930,2.930,-0.244
0.441,0.290,0.724,3.723,7.263,2.319
0.461,0.267,0.727,5.493,11.047,3.906
0.500,0.251,0.734,7.324,14.465,4.517
0.524,0.236,0.769,7.874,17.273,4.089
0.533,0.234,0.806,6.348,17.700,2.319
0.525,0.258,0.836,5.005,14.465,0.061
0.517,0.273,0.848,5.127,9.094,-1.160
0.512,0.279,0.843,5.981,3.235,-1.221
0.512,0.281,0.828,7.751,-1.282,-0.122
0.504,0.254,0.797,8.789,-4.089,1.099
0.505,0.225,0.778,9.644,-5.493,2.075
0.511,0.205,0.764,9.583,-5.066,2.319
0.521,0.187,0.756,7.996,-3.357,1.831
0.531,0.209,0.790,4.761,-0.427,0.916
0.517,0.197,0.747,2.869,3.174,-0.488
0.507,0.216,0.807,3.174,1.526,-1.099
0.503,0.240,0.849,1.099,2.075,-1.099
0.498,0.245,0.837,0.122,4.272,-0.977
0.492,0.246,0.863,2.075,1.953,-0.183
0.491,0.241,0.872,3.418,-1.709,0.305
0.493,0.237,0.866,4.395,-5.066,0.305
0.501,0.228,0.861,5.310,-8.240,-0.183
0.505,0.231,0.845,5.676,-10.986,-1.099
0.499,0.243,0.841,5.798,-13.000,-2.075
0.491,0.251,0.834,6.226,-13.794,-2.380
0.480,0.255,0.820,6.531,-12.878,-2.625
0.474,0.256,0.813,7.141,-11.047,-2.441
0.471,0.252,0.807,8.057,-8.850,-2.258
0.464,0.250,0.799,8.972,-6.653,-2.136
0.460,0.244,0.781,9.583,-4.639,-2.258
0.463,0.239,0.768,9.521,-3.174,-2.014
0.462,0.239,0.757,7.263,-1.282,-1.160
0.459,0.241,0.758,3.845,0.671,-0.122
0.463,0.246,0.771,0.916,1.953,1.038
0.467,0.250,0.777,-2.136,3.357,2.197
0.471,0.248,0.792,-4.150,4.395,3.296
0.483,0.252,0.801,-5.493,5.005,4.211
0.501,0.243,0.824,-5.554,6.836,4.517
0.512,0.223,0.838,-4.211,7.935,3.662
0.520,0.225,0.843,-2.563,5.554,2.075
0.525,0.229,0.851,-1.038,2.075,0.854
0.529,0.226,0.851,0.061,0.000,-0.549
0.527,0.235,0.856,0.549,-3.296,-1.465
0.524,0.246,0.846,0.366,-6.531,-1.953
0.518,0.243,0.837,0.549,-8.972,-2.197
0.521,0.250,0.816,1.343,-9.216,-2.014
0.510,0.253,0.811,1.526,-7.141,-1.831
0.502,0.255,0.805,1.648,-4.883,-1.831
0.490,0.258,0.805,1.404,-2.563,-1.465
0.484,0.259,0.812,1.221,-1.343,-0.610
0.486,0.262,0.812,0.671,-0.488,0.488
0.484,0.253,0.810,0.732,0.183,1.648
0.483,0.240,0.806,0.549,0.610,2.136
0.484,0.233,0.799,0.366,0.977,1.953
0.486,0.231,0.793,0.488,1.343,1.709
0.486,0.232,0.784,0.488,2.075,1.343
0.494,0.235,0.787,-0.610,2.625,0.977
0.499,0.245,0.802,-2.380,1.953,0.671
0.500,0.257,0.813,-3.845,0.732,0.427
0.500,0.268,0.818,-4.639,-0.183,0.305
0.496,0.273,0.822,-4.333,-0.061,0.305
0.494,0.272,0.813,-3.357,0.366,0.793
0.495,0.269,0.807,-1.648,0.977,1.282

0.307,0.216,-3.176,15.137,239.258,40.039
0.273,0.360,-3.692,0.244,297.729,42.664
0.341,0.485,-3.990,-36.072,369.507,57.007
0.606,0.710,-3.999,-94.910,456.909,77.454
0.946,0.964,-3.803,-163.940,547.485,99.243
1.397,1.188,-3.366,-230.530,632.874,117.249
1.868,1.376,-3.000,-288.086,709.656,128.601
2.417,1.473,-2.428,-351.746,771.912,135.559
3.240,1.439,-1.369,-433.044,829.529,135.071
3.889,1.586,0.133,-508.545,851.746,113.098
3.673,1.587,1.469,-549.988,779.358,60.120
3.655,1.599,2.352,-546.143,660.156,13.428
3.745,1.607,3.189,-503.540,562.134,-23.315
3.310,1.734,3.886,-415.894,486.450,-65.735
2.942,1.786,3.945,-229.736,429.932,-94.177
2.562,1.646,3.542,-37.292,402.527,-92.773
2.261,1.503,2.892,24.902,352.844,-57.739
2.165,1.270,2.691,19.165,281.128,-19.165
2.191,1.069,2.613,-14.954,205.933,11.902
2.085,0.923,2.978,-46.448,164.124,36.865
2.002,0.772,2.908,-63.110,161.194,42.053
1.910,0.595,2.786,-52.979,164.978,33.203
1.788,0.483,2.503,-13.672,168.274,26.428
1.642,0.344,2.298,12.878,165.222,22.217
1.422,0.232,2.103,21.057,157.837,19.592
1.372,0.054,1.942,28.564,141.602,8.728
1.131,0.107,1.760,23.926,121.765,3.235
0.923,0.125,1.681,21.912,97.168,-0.305
0.786,0.176,1.495,16.113,76.416,-1.892
0.630,0.189,1.307,4.211,58.228,1.465
0.504,0.258,1.081,-7.751,36.621,7.324
0.452,0.390,1.115,-21.484,13.123,15.320
0.501,0.466,1.220,-33.081,7.385,14.893
0.567,0.468,0.729,-37.903,28.015,6.409
0.487,0.451,0.980,-47.852,29.297,0.366
0.504,0.494,1.004,-34.668,23.804,3.174
0.581,0.500,0.932,-27.100,21.240,7.141
0.532,0.472,1.131,-25.452,11.292,7.019
0.554,0.434,1.101,-23.926,1.160,0.427
0.531,0.466,1.020,-15.869,-12.512,-5.798
0.468,0.531,1.043,-1.648,-26.184,-2.686
0.431,0.528,0.944,14.099,-34.302,5.920
0.443,0.515,0.829,26.733,-41.992,13.245
0.490,0.485,0.760,34.790,-48.767,18.799
0.504,0.447,0.729,37.659,-50.293,22.644
0.555,0.412,0.681,38.513,-45.898,23.682
0.609,0.376,0.650,36.011,-38.513,23.682
0.638,0.324,0.688,30.701,-30.579,23.132
0.648,0.280,0.713,24.231,-22.156,21.606
0.651,0.252,0.719,19.287,-15.259,19.836
0.662,0.224,0.755,15.381,-12.512,19.043
0.695,0.186,0.807,12.695,-12.146,16.296
0.683,0.169,0.839,10.315,-13.306,10.498
0.644,0.179,0.853,10.010,-17.029,3.174
0.610,0.191,0.835,10.742,-21.179,-3.418
0.569,0.220,0.784,12.268,-23.193,-8.057
0.525,0.241,0.745,15.076,-22.522,-11.597
0.500,0.264,0.701,16.541,-18.433,-13.428
0.476,0.271,0.671,15.869,-13.123,-13.855
0.450,0.271,0.657,13.611,-7.141,-12.146
0.434,0.272,0.675,10.010,-2.869,-9.338
0.443,0.297,0.602,5.005,-1.404,-5.615
0.468,0.337,0.769,-0.244,-2.869,-1.953
0.475,0.260,0.753,-6.042,3.418,0.366
0.487,0.223,0.729,-4.822,6.470,1.160
0.485,0.227,0.787,-2.686,-0.610,1.526
0.488,0.243,0.828,-0.061,-7.874,1.831
0.478,0.246,0.820,1.648,-10.559,1.953
0.474,0.236,0.774,3.845,-12.085,2.014
0.473,0.241,0.747,7.629,-14.709,2.808
0.479,0.242,0.728,9.399,-13.916,4.517
0.489,0.235,0.713,7.690,-10.071,5.676
0.490,0.226,0.737,3.784,-7.080,6.165
0.504,0.226,0.748,0.122,-5.310,6.226
0.510,0.223,0.766,-2.625,-2.197,5.920
0.502,0.220,0.785,-3.479,0.854,5.371
0.499,0.223,0.807,-3.235,2.686,5.005
0.500,0.226,0.830,-2.808,2.625,4.639
0.505,0.227,0.846,-1.343,1.221,3.845
0.519,0.223,0.874,0.854,-0.488,3.357
0.523,0.225,0.881,3.235,-3.845,2.197
0.527,0.229,0.877,5.249,-8.057,0.732
0.522,0.230,0.853,6.958,-11.475,-0.488
0.523,0.231,0.827,9.216,-13.733,-1.160
0.527,0.227,0.803,10.498,-13.855,-1.526
0.523,0.227,0.799,9.338,-12.329,-1.770
0.525,0.235,0.798,7.324,-8.850,-1.831
0.516,0.241,0.814,4.883,-4.822,-1.160
0.501,0.241,0.829,2.380,-0.977,0.610
0.490,0.230,0.837,2.075,2.075,1.770
0.486,0.218,0.844,3.235,4.578,2.014
0.481,0.216,0.852,5.310,6.226,1.404
0.477,0.222,0.850,6.897,6.165,0.549
0.470,0.230,0.849,7.690,4.028,0.061
0.475,0.230,0.854,7.690,0.854,0.183
0.480,0.226,0.841,6.165,-2.258,0.183
0.483,0.227,0.851,4.578,-5.676,-0.183
0.485,0.225,0.831,3.967,-6.897,-0.977
0.477,0.222,0.820,2.747,-6.836,-1.587
0.467,0.228,0.813,2.075,-6.042,-1.709
0.472,0.246,0.814,2.258,-4.517,-1.648
0.469,0.259,0.830,1.709,-2.625,-0.732
0.474,0.266,0.848,-0.549,-1.831,0.854
0.485,0.267,0.866,-2.869,-2.625,2.014
0.493,0.260,0.870,-3.601,-3.113,2.625
0.494,0.257,0.868,-3.052,-3.235,2.808
0.493,0.254,0.857,-1.221,-2.380,2.686
0.490,0.247,0.844,0.793,-1.282,2.441
0.488,0.238,0.830,2.625,-0.610,2.380
0.485,0.236,0.814,3.784,0.244,1.953
0.480,0.235,0.804,3.784,1.221,1.465
0.482,0.240,0.805,2.075,1.587,1.160
0.483,0.248,0.816,0.183,1.038,0.916
0.482,0.247,0.814,-1.221,0.671,0.732
0.483,0.249,0.812,-1.831,0.366,0.610
0.483,0.251,0.817,-1.709,0.610,0.488
0.483,0.251,0.826,-0.916,0.793,0.549
0.487,0.251,0.831,-0.366,0.122,0.366
0.491,0.248,0.843,0.793,-1.465,-0.061

0.228,0.490,-2.063,-100.891,442.688,40.833
0.428,0.528,-1.996,-118.103,484.802,54.688
0.646,0.518,-1.873,-138.672,526.306,67.322
0.891,0.556,-1.701,-163.635,567.444,76.355
1.187,0.552,-1.455,-192.078,604.309,80.872
1.536,0.528,-1.042,-231.689,632.446,80.688
1.819,0.561,-0.506,-281.555,644.775,72.754
1.932,0.602,0.063,-328.491,629.822,54.871
1.909,0.695,0.631,-371.582,589.783,32.959
1.935,0.856,1.108,-402.893,531.799,16.602
2.160,0.926,1.737,-399.536,469.666,1.709
2.183,0.916,2.399,-353.943,412.903,-24.475
2.087,0.954,2.627,-265.198,363.159,-53.284
1.952,0.990,2.399,-151.611,310.425,-70.496
1.937,1.003,2.054,-59.509,264.587,-66.223
1.944,0.972,1.817,-12.817,229.736,-44.006
1.957,0.923,1.754,-0.916,205.933,-19.775
2.069,0.922,1.704,-10.864,200.439,-4.822
2.053,0.942,1.847,-45.837,207.947,4.517
1.870,1.036,2.055,-100.830,215.515,11.963
1.985,1.016,2.407,-141.724,212.585,18.066
1.924,1.177,2.433,-150.635,201.721,36.255
1.890,1.021,2.396,-125.854,197.327,52.246
1.916,0.843,2.370,-79.956,181.824,56.030
1.916,0.769,2.457,-45.166,153.687,51.270
1.740,0.632,2.290,-32.288,124.084,37.659
1.567,0.568,2.052,-17.944,80.627,25.879
1.418,0.525,1.828,2.380,32.959,20.569
1.278,0.446,1.608,27.100,-2.136,15.137
1.184,0.439,1.711,39.917,-18.677,9.460
1.068,0.387,1.064,25.452,-6.531,1.892
0.859,0.337,1.041,12.085,-8.118,-6.409
0.774,0.411,0.950,22.522,-19.409,-11.108
0.589,0.431,0.891,25.818,-33.386,-12.451
0.484,0.446,0.775,23.743,-36.194,-13.245
0.387,0.474,0.691,19.531,-33.752,-10.925
0.345,0.502,0.630,11.475,-28.320,-6.104
0.322,0.497,0.609,5.371,-19.958,-0.427
0.306,0.483,0.617,1.770,-12.512,5.859
0.328,0.452,0.610,0.793,-6.836,10.315
0.373,0.421,0.613,0.305,-2.380,13.184
0.436,0.379,0.667,0.427,0.488,15.625
0.506,0.375,0.710,-1.160,-0.427,16.113
0.547,0.400,0.743,-5.005,-4.211,14.771
0.561,0.409,0.757,-8.484,-8.789,14.038
0.574,0.398,0.729,-9.644,-13.306,13.977
0.580,0.394,0.715,-7.690,-17.090,13.916
0.583,0.385,0.688,-4.150,-18.066,13.428
0.592,0.371,0.658,-0.427,-16.602,12.512
0.586,0.355,0.653,1.770,-14.099,11.597
0.589,0.348,0.635,2.563,-11.475,11.169
0.595,0.340,0.654,0.549,-8.850,10.803
0.617,0.314,0.692,-2.258,-7.507,9.705
0.634,0.315,0.745,-4.150,-7.812,8.667
0.639,0.321,0.787,-5.371,-10.925,7.324
0.633,0.329,0.812,-4.089,-14.954,5.615
0.608,0.352,0.816,-1.770,-18.250,3.784
0.575,0.364,0.808,1.526,-20.386,3.052
0.547,0.371,0.792,4.883,-23.132,3.540
0.538,0.364,0.780,7.935,-26.001,4.150
0.540,0.350,0.761,11.169,-25.696,4.333
0.547,0.346,0.744,13.733,-22.034,4.395
0.549,0.345,0.747,16.235,-16.602,4.456
0.550,0.330,0.750,18.372,-10.376,4.333
0.552,0.322,0.756,18.311,-5.371,4.272
0.549,0.314,0.759,15.076,-2.380,4.028
0.543,0.302,0.750,10.681,-0.549,3.235
0.538,0.296,0.772,7.080,-0.122,2.014
0.544,0.300,0.784,4.761,-0.732,0.366
0.531,0.328,0.803,5.310,-2.441,-1.770
0.508,0.346,0.796,7.690,-4.395,-3.357
0.498,0.361,0.780,10.071,-7.263,-3.723
0.497,0.373,0.763,11.475,-11.414,-3.113
0.493,0.373,0.751,12.451,-14.038,-2.075
0.496,0.363,0.740,13.550,-14.404,-1.221
0.499,0.355,0.739,14.038,-13.916,-0.916
0.496,0.348,0.744,13.611,-12.878,-0.793
0.487,0.330,0.746,13.306,-11.475,-0.305
0.488,0.310,0.740,12.817,-10.498,0.244
0.492,0.299,0.733,11.597,-9.277,0.183
0.481,0.308,0.740,10.071,-8.240,-0.366
0.461,0.320,0.737,7.751,-7.935,-0.427
0.459,0.332,0.744,2.991,-9.644,0.061
0.464,0.345,0.772,-1.953,-12.878,1.099
0.473,0.349,0.793,-3.174,-15.198,2.319
0.484,0.343,0.805,-0.793,-16.235,3.052
0.496,0.335,0.814,4.333,-15.503,2.991
0.498,0.328,0.810,10.925,-13.550,2.136
0.503,0.323,0.802,16.113,-11.353,0.916
0.501,0.320,0.799,18.799,-9.644,-0.061
0.488,0.323,0.793,18.860,-8.301,-0.854
0.486,0.322,0.797,17.334,-7.202,-1.343
0.483,0.326,0.808,14.038,-7.141,-1.160
0.481,0.327,0.817,10.864,-8.484,-0.366
0.483,0.320,0.816,8.606,-10.010,0.488
0.484,0.314,0.810,7.812,-10.864,0.671
0.488,0.312,0.798,8.240,-10.437,0.549
0.480,0.313,0.793,8.667,-8.240,0.488
0.479,0.311,0.797,8.423,-5.676,0.488
0.471,0.316,0.807,7.935,-4.211,0.488
0.467,0.322,0.816,7.751,-2.991,0.732
0.464,0.317,0.823,8.301,-1.343,1.099
0.470,0.309,0.823,9.644,0.061,1.587
0.473,0.305,0.820,11.658,1.282,1.831
0.474,0.299,0.809,12.573,2.075,1.892
0.482,0.292,0.809,11.230,1.282,1.831
0.487,0.288,0.818,8.362,-0.854,1.709
0.490,0.288,0.821,5.920,-3.052,1.343
0.482,0.293,0.820,4.578,-4.333,0.732
0.478,0.294,0.817,5.066,-5.066,0.305
0.478,0.292,0.810,5.493,-5.737,-0.244
0.474,0.291,0.801,6.104,-6.165,-0.488
0.470,0.287,0.791,7.446,-5.554,-0.366
0.470,0.282,0.786,8.484,-4.639,0.000
0.476,0.281,0.784,8.484,-4.028,0.244
0.476,0.290,0.784,8.118,-3.174,0.122
0.465,0.289,0.769,7.690,-1.953,0.000
0.462,0.287,0.733,4.822,-2.136,0.244
0.458,0.291,0.744,0.122,-3.540,1.038

-0.013,0.331,-2.559,-8.545,282.288,34.058
0.066,0.416,-2.587,-54.443,328.186,41.321
0.197,0.561,-2.440,-114.807,379.578,51.758
0.377,0.706,-2.165,-176.270,434.204,62.439
0.579,0.795,-1.797,-227.905,486.389,72.021
0.767,0.829,-1.324,-264.771,532.898,80.017
1.123,0.848,-0.985,-292.908,571.289,83.801
1.358,0.807,-0.398,-321.899,594.727,78.674
1.510,0.854,0.085,-337.585,601.379,65.918
1.574,0.708,0.531,-340.149,585.510,43.884
1.656,0.666,0.925,-326.660,553.894,27.344
1.628,0.699,1.165,-303.833,514.343,14.709
1.593,0.691,1.395,-275.146,476.318,1.404
1.566,0.686,1.593,-241.760,442.322,-10.071
1.525,0.614,1.734,-203.857,407.654,-20.691
1.675,0.586,1.790,-166.504,375.183,-26.123
2.042,0.550,2.000,-143.677,352.417,-24.475
2.212,0.556,2.406,-145.020,332.153,-23.437
2.153,0.610,2.641,-154.663,301.392,-30.212
1.952,0.666,2.950,-150.818,247.864,-39.124
1.709,0.747,2.865,-143.188,194.397,-45.166
1.482,0.803,2.477,-145.203,154.663,-50.720
1.271,0.778,2.186,-134.949,123.657,-55.847
1.057,0.813,1.964,-109.314,105.591,-56.458
0.886,0.851,1.761,-85.449,102.661,-55.664
0.773,0.951,1.659,-70.435,104.187,-53.955
0.694,1.091,1.634,-65.186,105.835,-47.974
0.637,1.172,1.679,-63.843,105.225,-35.706
0.565,1.254,1.575,-56.091,102.417,-19.714
0.643,1.115,1.769,-35.767,91.736,-3.540
0.739,1.053,1.773,-5.005,85.754,10.986
0.760,0.980,1.746,15.076,90.820,27.954
0.797,0.824,1.498,30.273,105.286,38.940
0.830,0.637,1.252,53.528,110.413,43.945
0.815,0.535,1.293,72.021,106.079,44.128
0.874,0.340,0.860,90.332,100.708,42.053
0.877,0.250,1.139,90.942,61.890,41.321
0.914,0.246,1.099,64.148,42.725,36.499
0.913,0.226,1.089,26.489,26.001,28.748
0.871,0.276,1.201,-8.850,0.916,21.545
0.834,0.336,1.202,-34.973,-16.785,14.343
0.787,0.405,1.154,-45.044,-31.860,7.324
0.708,0.458,1.155,-47.424,-40.344,2.197
0.674,0.496,1.114,-36.255,-43.457,-2.319
0.619,0.501,1.023,-17.883,-43.823,-3.723
0.575,0.503,0.935,-1.465,-40.344,-4.211
0.531,0.465,0.834,9.949,-34.058,-4.883
0.495,0.448,0.751,14.954,-27.344,-4.639
0.470,0.427,0.699,13.184,-20.386,-3.845
0.458,0.422,0.679,4.333,-13.306,-2.686
0.463,0.406,0.689,-3.418,-7.690,-0.427
0.491,0.394,0.719,-5.859,-2.075,1.282
0.510,0.375,0.763,-3.418,3.113,1.831
0.504,0.366,0.819,5.005,6.348,1.160
0.495,0.373,0.796,14.893,4.395,0.488
0.498,0.378,0.770,21.179,-3.723,0.305
0.480,0.391,0.797,23.682,-15.808,1.587
0.490,0.378,0.778,22.949,-28.809,4.700
0.499,0.357,0.758,15.564,-35.095,7.507
0.498,0.324,0.758,13.489,-39.612,8.789
0.500,0.289,0.752,14.771,-40.710,6.836
0.486,0.279,0.721,15.930,-36.682,4.272
0.486,0.260,0.694,18.616,-29.907,2.014
0.466,0.258,0.679,20.325,-22.156,0.488
0.455,0.257,0.671,18.433,-15.869,-0.427
0.446,0.271,0.684,13.428,-11.658,-1.465
0.431,0.301,0.706,8.362,-8.484,-2.380
0.421,0.339,0.740,4.150,-6.592,-2.014
0.421,0.363,0.789,1.526,-6.714,-0.854
0.431,0.371,0.808,1.709,-8.118,0.183
0.428,0.375,0.840,4.578,-10.864,0.610
0.427,0.374,0.815,9.094,-12.573,0.183
0.425,0.365,0.786,15.503,-12.451,-0.488
0.411,0.335,0.738,21.851,-9.888,-0.488
0.408,0.324,0.727,23.804,-6.470,-0.732
0.428,0.299,0.723,21.240,-1.343,-0.916
0.428,0.275,0.738,18.372,3.113,-0.854
0.441,0.295,0.770,14.099,7.446,-1.465
0.442,0.297,0.806,8.240,9.338,-1.221
0.435,0.307,0.846,1.282,7.202,-0.488
0.444,0.311,0.877,-3.784,1.770,0.061
0.445,0.323,0.901,-5.432,-3.540,-0.427
0.436,0.337,0.895,-3.540,-8.789,-1.099
0.413,0.345,0.886,0.244,-14.343,-1.831
0.396,0.356,0.821,3.967,-14.893,-2.258
0.381,0.351,0.791,9.827,-13.428,-2.869
0.372,0.352,0.798,13.367,-11.719,-2.930
0.370,0.344,0.768,13.428,-7.019,-3.052
0.372,0.335,0.780,11.963,-3.479,-2.136
0.390,0.323,0.811,9.399,0.000,-1.099
0.405,0.316,0.849,7.385,2.502,-0.671
0.416,0.303,0.876,7.080,2.930,-1.099
0.430,0.301,0.892,7.446,1.038,-1.648
0.432,0.299,0.901,7.568,-2.380,-2.197
0.427,0.302,0.901,7.446,-5.127,-3.052
0.412,0.307,0.888,7.324,-7.263,-3.540
0.404,0.322,0.889,6.836,-9.521,-3.967
0.393,0.329,0.866,6.653,-10.620,-4.028
0.377,0.340,0.849,7.507,-10.315,-3.784
0.365,0.364,0.864,6.836,-9.033,-2.808
0.370,0.361,0.864,5.737,-7.446,-1.221
0.379,0.355,0.875,4.089,-5.798,0.671
0.386,0.349,0.881,3.967,-4.150,1.953
0.400,0.334,0.885,5.249,-3.174,2.686
0.412,0.313,0.893,6.775,-2.441,2.502
0.421,0.304,0.899,8.911,-2.930,1.770
0.419,0.311,0.906,10.864,-4.333,0.977
0.412,0.307,0.888,12.451,-6.714,0.366
0.400,0.299,0.860,12.573,-9.705,-0.366
0.389,0.300,0.840,12.146,-11.475,-0.244
0.384,0.296,0.824,10.498,-11.475,-0.122
0.382,0.294,0.818,8.057,-10.132,-0.244
0.380,0.290,0.817,5.798,-7.751,-0.122
0.378,0.288,0.823,4.150,-5.310,-0.061
0.379,0.289,0.835,2.930,-2.991,0.061
0.387,0.285,0.844,2.869,-1.221,0.671
0.394,0.282,0.853,2.563,-0.244,1.160
0.405,0.277,0.862,1.953,0.061,1.099
0.408,0.279,0.875,1.160,-0.732,0.488

0.241,0.011,-2.850,82.031,213.196,33.875
0.230,0.245,-3.019,26.855,252.747,21.912
0.193,0.497,-2.952,-58.350,302.368,18.372
0.280,0.781,-2.702,-143.982,362.000,22.766
0.429,0.952,-2.383,-202.759,428.040,34.485
0.646,1.043,-2.035,-234.497,494.690,52.979
0.918,0.982,-1.600,-248.779,553.589,75.073
1.243,0.982,-1.366,-254.761,600.830,96.008
1.595,0.796,-0.997,-268.127,634.583,105.896
1.917,0.656,-0.405,-289.612,657.654,101.196
2.270,0.594,0.199,-317.322,657.043,77.026
2.320,0.535,0.766,-343.323,623.962,38.147
2.130,0.577,1.116,-356.262,570.129,4.150
1.880,0.744,1.359,-353.333,506.287,-18.494
1.911,0.942,1.655,-323.364,452.698,-36.011
1.951,0.990,2.037,-273.804,416.870,-49.377
2.028,0.948,2.302,-227.356,383.118,-54.321
2.035,0.933,2.450,-190.552,339.783,-52.307
2.031,0.907,2.378,-150.757,300.293,-49.011
1.958,0.896,2.137,-119.141,272.278,-46.631
1.800,0.925,2.021,-102.173,247.742,-42.603
1.659,1.007,1.911,-108.276,231.384,-36.682
1.568,1.118,1.782,-140.015,225.342,-32.288
1.462,1.314,1.771,-182.861,218.628,-30.579
1.302,1.641,1.875,-213.074,215.210,-25.574
1.385,1.517,1.974,-216.614,212.708,-14.893
1.718,1.822,1.856,-182.251,222.839,3.174
1.495,1.353,2.529,-153.381,202.637,4.578
1.731,1.426,2.400,-121.521,179.626,7.996
1.555,1.219,2.260,-77.515,160.217,19.470
1.478,0.969,2.114,-8.057,128.601,21.118
1.464,0.826,2.108,53.528,83.313,35.522
1.455,0.633,2.038,87.769,68.420,47.180
1.512,0.338,2.177,78.430,67.993,42.725
1.517,0.175,1.537,53.589,63.599,28.076
1.336,0.163,1.911,36.438,18.982,10.742
1.204,0.168,1.510,19.104,-18.616,-4.272
1.016,0.310,1.451,-2.869,-55.847,-13.123
0.845,0.384,1.264,-18.860,-79.956,-20.142
0.793,0.455,1.038,-13.550,-86.792,-28.809
0.653,0.612,0.873,-5.798,-82.703,-28.564
0.481,0.685,0.775,3.418,-76.660,-21.973
0.387,0.727,0.725,15.747,-70.374,-12.878
0.349,0.742,0.680,26.794,-63.416,-4.822
0.340,0.685,0.609,37.537,-52.917,0.671
0.356,0.634,0.578,51.697,-38.879,5.493
0.369,0.572,0.563,60.791,-28.442,9.949
0.378,0.499,0.555,61.462,-21.362,15.564
0.397,0.407,0.528,57.312,-19.104,19.409
0.415,0.336,0.498,50.415,-19.409,19.836
0.440,0.284,0.479,39.063,-20.935,19.287
0.502,0.247,0.509,23.376,-20.447,16.357
0.579,0.235,0.612,6.226,-18.005,10.071
0.602,0.275,0.722,-7.385,-16.296,1.587
0.590,0.328,0.783,-13.306,-19.165,-5.310
0.555,0.368,0.782,-12.512,-24.536,-9.460
0.535,0.409,0.786,-6.836,-28.137,-10.559
0.531,0.404,0.647,3.845,-26.550,-9.338
0.504,0.459,0.685,17.639,-18.311,-6.165
0.462,0.416,0.614,32.410,-12.756,-3.601
0.473,0.420,0.642,36.377,-13.367,-0.366
0.479,0.389,0.636,30.518,-6.165,2.380
0.474,0.370,0.673,23.010,-3.845,3.845
0.479,0.347,0.725,14.832,-4.761,4.395
0.486,0.329,0.791,6.775,-7.385,5.127
0.506,0.313,0.831,2.136,-11.658,5.249
0.524,0.301,0.831,4.761,-14.832,3.357
0.537,0.300,0.821,11.841,-16.785,0.061
0.507,0.335,0.808,16.846,-18.860,-2.930
0.474,0.356,0.761,17.334,-24.292,-3.906
0.442,0.363,0.729,13.489,-31.799,-3.235
0.431,0.361,0.705,8.911,-36.499,-1.465
0.432,0.348,0.685,7.202,-36.987,-0.061
0.431,0.343,0.694,8.301,-31.860,0.549
0.428,0.327,0.709,11.597,-23.193,1.160
0.432,0.319,0.719,14.587,-15.198,1.587
0.441,0.295,0.724,16.113,-9.521,1.892
0.444,0.274,0.717,15.381,-5.371,1.587
0.451,0.255,0.711,12.634,-2.869,0.610
0.469,0.249,0.735,9.216,-0.977,-1.221
0.480,0.282,0.776,6.653,0.916,-3.662
0.481,0.312,0.825,5.981,1.892,-5.737
0.465,0.347,0.865,4.456,-0.793,-7.935
0.470,0.376,0.901,1.953,-8.301,-8.179
0.468,0.373,0.912,0.244,-18.250,-6.897
0.454,0.369,0.893,1.648,-24.109,-5.127
0.450,0.366,0.883,5.127,-25.208,-3.906
0.440,0.362,0.869,9.766,-21.973,-2.808
0.431,0.361,0.860,13.367,-18.188,-1.404
0.422,0.364,0.841,16.785,-15.991,0.183
0.418,0.351,0.805,18.799,-15.137,1.160
0.400,0.334,0.779,18.616,-13.733,1.892
0.389,0.329,0.744,17.212,-11.414,1.892
0.377,0.326,0.726,15.869,-7.935,1.099
0.369,0.329,0.732,13.245,-4.150,0.549
0.366,0.339,0.753,9.888,-1.831,0.427
0.369,0.351,0.786,6.775,-0.427,0.732
0.382,0.361,0.822,4.089,0.061,1.282
0.394,0.360,0.863,2.808,-0.427,1.709
0.404,0.362,0.892,3.723,-2.380,2.075
0.405,0.358,0.891,6.531,-5.005,2.441
0.406,0.340,0.864,9.094,-7.751,2.991
0.405,0.323,0.838,10.620,-9.277,3.235
0.407,0.307,0.817,11.169,-8.911,3.174
0.406,0.300,0.802,10.254,-7.263,2.502
0.402,0.297,0.800,7.690,-5.554,1.465
0.404,0.302,0.808,4.883,-4.517,0.671
0.414,0.308,0.827,3.174,-3.784,0.122
0.418,0.318,0.849,1.831,-3.357,-0.122
0.417,0.328,0.851,0.488,-3.784,-0.122
0.414,0.326,0.854,-0.427,-4.700,0.000
0.420,0.328,0.865,-0.610,-5.554,0.488
0.413,0.333,0.875,-0.427,-6.348,1.160
0.412,0.327,0.867,-0.122,-7.568,2.014
0.412,0.316,0.855,0.671,-9.216,2.747
0.409,0.305,0.836,1.953,-9.399,2.991
0.406,0.297,0.817,3.662,-8.179,2.991
0.404,0.290,0.807,4.822,-6.042,2.747
0.402,0.287,0.799,4.883,-3.967,2.319

0.486,0.294,-2.037,-116.577,396.179,67.566
0.624,0.330,-1.955,-136.108,437.805,71.106
0.771,0.362,-1.849,-155.945,478.516,73.242
0.965,0.422,-1.699,-180.481,513.428,76.172
1.151,0.496,-1.502,-210.083,543.518,79.346
1.371,0.546,-1.211,-243.164,571.045,81.238
1.637,0.603,-0.853,-276.672,592.590,80.261
1.877,0.633,-0.357,-307.983,602.417,72.327
2.004,0.721,0.100,-337.036,595.764,54.932
1.970,0.789,0.528,-350.830,567.566,33.447
1.880,0.886,0.770,-342.834,524.719,18.738
2.025,0.934,0.986,-321.838,479.614,11.780
2.321,0.898,1.436,-296.631,446.411,6.104
2.547,0.928,1.870,-265.320,422.791,-6.104
2.655,0.971,2.229,-218.567,403.809,-22.949
2.678,0.942,2.451,-165.771,382.812,-32.227
2.572,0.882,2.564,-138.000,344.116,-32.043
2.337,0.915,2.752,-133.179,279.236,-27.649
2.227,1.065,2.705,-141.296,218.994,-21.423
2.067,1.181,2.568,-164.001,177.734,-18.982
1.873,1.247,2.449,-179.138,148.315,-18.311
1.711,1.323,2.297,-166.138,131.836,-15.808
1.562,1.371,2.229,-133.484,125.000,-12.878
1.368,1.154,2.440,-98.328,116.577,-14.282
1.457,1.259,2.111,-68.787,99.976,-12.634
1.260,1.127,1.849,-26.978,108.337,2.258
1.223,0.898,1.727,12.695,102.417,12.634
1.222,0.751,1.461,47.424,97.229,24.109
1.185,0.632,1.297,71.289,91.858,35.217
1.274,0.532,1.263,78.735,82.703,38.696
1.314,0.463,1.247,58.960,75.317,32.043
1.250,0.390,1.144,25.879,71.106,20.020
1.212,0.400,1.046,1.648,60.181,9.338
1.052,0.466,1.115,-11.963,37.903,6.653
0.926,0.511,1.119,-25.757,18.372,6.042
0.867,0.567,1.039,-34.241,2.747,3.540
0.680,0.619,0.885,-30.151,-10.681,-1.465
0.583,0.605,0.663,-13.428,-20.996,-8.240
0.511,0.693,0.488,-0.977,-27.039,-13.123
0.427,0.833,0.442,-2.686,-28.870,-10.315
0.389,0.937,0.472,-15.320,-24.414,-1.282
0.454,0.934,0.586,-27.771,-14.160,12.451
0.562,0.818,0.713,-27.588,0.061,27.893
0.680,0.694,0.797,-14.954,14.832,40.405
0.851,0.545,0.874,4.944,25.696,46.631
0.960,0.388,0.952,22.217,28.381,45.105
0.993,0.318,0.977,32.043,20.325,36.987
0.949,0.314,0.971,35.400,1.221,23.865
0.868,0.339,0.896,34.973,-21.179,10.315
0.799,0.380,0.776,31.006,-38.513,0.549
0.739,0.418,0.690,28.442,-53.345,-2.075
0.666,0.426,0.565,28.809,-60.852,-1.038
0.647,0.432,0.556,29.480,-63.904,1.221
0.654,0.410,0.529,30.640,-57.617,3.235
0.656,0.395,0.495,34.119,-41.870,4.639
0.633,0.356,0.490,37.598,-24.475,5.859
0.615,0.335,0.494,38.025,-10.925,6.226
0.600,0.334,0.526,37.109,-3.113,7.446
0.604,0.310,0.569,34.973,0.000,8.728
0.607,0.287,0.617,32.104,-3.052,8.606
0.613,0.283,0.654,30.273,-10.193,7.507
0.604,0.280,0.672,29.724,-19.958,5.737
0.608,0.279,0.664,29.602,-29.419,3.784
0.615,0.274,0.646,27.100,-37.048,1.770
0.610,0.274,0.623,23.926,-40.894,0.732
0.622,0.250,0.613,19.043,-41.931,-0.244
0.631,0.223,0.605,13.611,-40.222,-1.526
0.626,0.223,0.604,10.986,-35.645,-2.930
0.622,0.242,0.607,10.559,-30.457,-5.066
0.605,0.281,0.612,11.292,-24.780,-7.996
0.568,0.314,0.602,13.550,-18.494,-9.827
0.529,0.329,0.613,13.428,-13.855,-9.583
0.515,0.348,0.641,10.925,-14.038,-7.568
0.531,0.348,0.680,8.362,-18.494,-5.005
0.548,0.340,0.710,6.714,-24.597,-3.174
0.546,0.334,0.722,5.676,-30.945,-1.526
0.543,0.354,0.770,6.470,-35.767,-0.305
0.541,0.334,0.713,10.559,-36.316,-0.549
0.535,0.324,0.730,14.893,-37.354,-0.610
0.537,0.308,0.703,17.761,-32.410,-0.793
0.533,0.289,0.689,19.958,-25.940,-0.671
0.533,0.267,0.689,21.484,-19.714,-1.099
0.528,0.256,0.680,21.118,-13.367,-2.075
0.513,0.245,0.685,20.386,-7.507,-3.235
0.506,0.265,0.703,18.127,-3.174,-4.700
0.499,0.307,0.714,15.869,0.793,-5.798
0.486,0.324,0.719,12.878,2.502,-5.676
0.483,0.345,0.725,6.104,0.977,-4.700
0.484,0.369,0.747,-0.854,-1.831,-3.723
0.487,0.379,0.774,-4.822,-3.845,-2.014
0.495,0.384,0.804,-5.859,-5.310,-0.366
0.513,0.382,0.822,-4.395,-7.080,0.732
0.516,0.375,0.833,-2.502,-9.216,1.038
0.514,0.368,0.812,1.038,-10.193,0.671
0.511,0.355,0.796,4.883,-10.132,0.305
0.515,0.342,0.782,7.751,-8.911,0.000
0.506,0.340,0.770,8.545,-6.531,-0.488
0.511,0.333,0.766,8.545,-4.761,-0.916
0.511,0.337,0.770,7.446,-3.418,-1.282
0.513,0.354,0.794,5.798,-1.770,-1.709
0.510,0.351,0.749,5.981,-0.183,-1.953
0.501,0.361,0.787,5.432,-1.587,-1.770
0.503,0.378,0.794,2.808,-1.404,-1.404
0.500,0.375,0.796,0.793,-0.427,-0.549
0.497,0.366,0.800,-1.404,-1.404,0.793
0.504,0.360,0.806,-3.357,-4.333,2.136
0.510,0.347,0.802,-3.235,-6.470,2.991
0.527,0.326,0.813,-0.916,-7.202,3.113
0.532,0.324,0.835,2.869,-7.812,1.953
0.526,0.316,0.830,6.348,-8.667,0.549
0.522,0.309,0.810,7.935,-9.949,-0.610
0.516,0.306,0.796,8.179,-10.437,-1.099
0.508,0.311,0.787,7.812,-9.277,-1.587
0.502,0.308,0.774,7.568,-7.202,-1.587
0.499,0.307,0.771,6.409,-5.493,-1.709
0.496,0.317,0.784,5.493,-4.211,-1.648
0.487,0.332,0.780,4.395,-3.723,-0.854
0.486,0.330,0.769,3.540,-3.601,0.122
0.489,0.319,0.757,3.174,-3.357,1.038

-0.189,0.362,-2.158,-9.888,294.128,16.541
-0.141,0.399,-2.231,-27.710,331.543,30.090
0.032,0.431,-2.247,-50.354,374.451,45.715
0.275,0.494,-2.220,-79.407,420.593,61.401
0.457,0.496,-2.100,-110.779,468.933,73.669
0.659,0.527,-1.938,-141.174,514.221,81.909
0.911,0.571,-1.694,-170.959,554.565,87.463
1.151,0.607,-1.420,-202.576,588.257,90.271
1.470,0.592,-1.039,-236.023,614.624,90.027
1.860,0.611,-0.564,-275.696,629.456,86.731
2.143,0.638,0.134,-316.162,626.648,73.181
2.333,0.738,0.690,-333.862,606.995,51.270
2.338,0.761,1.159,-337.158,568.970,29.541
2.369,0.891,1.555,-327.148,516.846,18.250
2.395,0.909,2.049,-307.739,459.778,3.662
2.249,0.984,2.387,-277.161,393.982,-18.555
2.052,1.081,2.263,-224.182,317.993,-38.757
1.999,1.143,2.009,-165.527,251.526,-45.593
2.013,1.186,1.711,-128.662,216.614,-35.767
2.059,1.215,1.674,-107.666,207.153,-19.104
2.119,1.310,1.739,-114.685,218.384,-4.822
2.163,1.368,1.874,-154.236,236.084,2.808
2.201,1.409,2.134,-195.007,240.967,7.202
2.189,1.418,2.277,-203.613,235.352,12.207
2.366,1.381,2.141,-189.331,222.229,15.869
1.961,1.112,2.497,-167.114,190.308,14.709
2.102,1.057,2.307,-143.188,155.518,14.160
2.013,0.906,2.176,-120.972,138.672,13.000
1.898,0.811,2.157,-89.966,123.840,6.409
1.624,0.619,1.674,-36.804,102.966,-0.061
1.493,0.730,1.961,13.611,52.307,6.836
1.398,0.651,1.806,30.823,48.340,10.193
1.344,0.489,1.581,29.968,42.542,6.958
1.238,0.497,1.807,25.208,27.832,-3.967
1.110,0.441,1.251,34.241,9.644,-14.648
1.058,0.476,1.176,51.086,-16.174,-20.569
0.866,0.549,1.029,49.255,-36.133,-21.240
0.755,0.561,0.852,40.527,-50.720,-19.775
0.649,0.599,0.728,36.072,-62.805,-16.968
0.511,0.562,0.580,35.034,-69.580,-15.381
0.493,0.495,0.445,39.124,-68.176,-16.418
0.398,0.570,0.402,34.973,-60.181,-13.672
0.327,0.615,0.376,23.987,-48.706,-6.409
0.307,0.599,0.404,12.268,-38.696,0.122
0.363,0.613,0.499,-1.160,-31.921,8.362
0.461,0.624,0.594,-5.981,-25.757,14.343
0.425,0.565,0.554,2.075,-22.034,17.944
0.478,0.531,0.600,13.062,-16.235,19.775
0.545,0.510,0.615,15.686,-13.367,22.034
0.585,0.450,0.649,15.930,-12.695,21.057
0.605,0.393,0.668,15.442,-15.076,16.357
0.608,0.378,0.667,13.733,-20.508,9.583
0.592,0.360,0.654,12.939,-26.367,4.395
0.595,0.362,0.627,13.794,-30.457,1.221
0.609,0.385,0.625,14.160,-29.053,-0.427
0.599,0.369,0.594,13.489,-22.705,-0.244
0.579,0.402,0.603,15.930,-16.235,1.404
0.568,0.406,0.620,17.090,-14.343,3.418
0.580,0.402,0.634,17.578,-13.245,5.432
0.587,0.389,0.642,17.822,-11.353,7.568
0.583,0.382,0.643,20.203,-10.437,8.362
0.570,0.377,0.650,23.621,-12.268,8.179
0.557,0.372,0.673,24.597,-15.808,7.446
0.551,0.372,0.666,23.804,-19.531,6.531
0.552,0.365,0.684,22.644,-22.827,4.944
0.545,0.374,0.680,19.836,-24.292,3.479
0.546,0.353,0.685,18.494,-23.743,3.113
0.560,0.353,0.712,16.052,-20.081,3.601
0.576,0.337,0.736,13.245,-15.930,4.639
0.597,0.313,0.764,10.559,-13.672,5.249
0.615,0.304,0.785,8.545,-12.756,4.822
0.612,0.297,0.768,8.118,-12.573,3.662
0.599,0.302,0.771,9.277,-13.977,2.319
0.591,0.319,0.771,9.766,-15.991,0.854
0.574,0.333,0.775,10.681,-18.799,-0.427
0.557,0.363,0.765,11.719,-22.766,-2.258
0.535,0.379,0.744,12.634,-25.146,-3.662
0.515,0.384,0.720,12.817,-25.757,-3.967
0.501,0.388,0.720,12.268,-24.414,-3.784
0.499,0.392,0.721,12.756,-21.851,-2.991
0.499,0.386,0.718,13.794,-17.456,-1.892
0.501,0.380,0.712,15.381,-12.085,-0.610
0.502,0.355,0.708,16.479,-7.446,0.549
0.505,0.333,0.713,14.587,-5.188,1.221
0.511,0.330,0.734,10.193,-5.798,0.916
0.514,0.334,0.754,6.165,-8.057,0.061
0.510,0.341,0.769,2.747,-11.047,-1.282
0.515,0.348,0.787,0.793,-14.404,-2.686
0.513,0.360,0.797,0.244,-17.761,-3.662
0.497,0.383,0.809,-0.061,-20.264,-3.662
0.493,0.385,0.816,0.183,-22.156,-3.357
0.486,0.386,0.823,1.648,-21.851,-2.869
0.482,0.383,0.804,4.883,-20.813,-2.136
0.478,0.378,0.814,8.667,-19.897,-1.404
0.468,0.363,0.769,10.498,-17.517,-1.038
0.458,0.356,0.750,11.536,-17.090,-0.366
0.451,0.363,0.746,10.437,-16.724,0.488
0.443,0.361,0.733,6.714,-14.954,1.160
0.438,0.368,0.729,1.953,-13.123,2.075
0.440,0.367,0.736,-1.831,-10.864,2.930
0.443,0.371,0.740,-4.761,-8.057,3.418
0.451,0.372,0.752,-6.042,-5.432,3.723
0.473,0.369,0.778,-5.493,-3.174,3.723
0.492,0.364,0.829,-4.211,-1.343,2.991
0.496,0.372,0.858,-1.160,-1.587,1.343
0.488,0.377,0.851,3.418,-3.357,-0.183
0.485,0.380,0.845,7.263,-5.188,-0.977
0.475,0.381,0.840,9.338,-7.446,-0.977
0.469,0.373,0.820,9.644,-10.010,-0.732
0.465,0.364,0.805,8.118,-11.841,-0.488
0.468,0.350,0.793,6.958,-11.902,-0.549
0.469,0.342,0.779,6.714,-10.071,-0.366
0.474,0.335,0.767,6.653,-7.202,-0.244
0.475,0.327,0.761,5.310,-4.822,-0.305
0.468,0.323,0.754,2.808,-2.991,-0.366
0.466,0.325,0.757,-0.427,-1.404,-0.488
0.467,0.333,0.775,-3.235,-0.488,-0.427
0.469,0.342,0.790,-4.883,-0.366,-0.427
0.471,0.347,0.801,-5.127,-0.488,-0.427

0.163,0.326,-2.813,27.588,261.414,19.470
0.248,0.495,-2.961,0.793,309.570,24.902
0.436,0.639,-2.968,-43.701,363.831,37.781
0.629,0.784,-2.857,-93.750,424.316,53.406
0.845,0.862,-2.660,-138.062,486.633,69.153
1.089,0.911,-2.400,-174.133,544.922,84.290
1.347,0.910,-2.034,-204.285,597.595,97.961
1.678,0.984,-1.827,-229.553,640.564,109.375
1.995,0.915,-1.372,-269.165,671.936,109.619
2.246,0.921,-0.790,-312.805,694.336,101.868
2.464,0.999,-0.317,-346.008,702.393,88.074
2.559,0.990,0.222,-381.409,695.801,69.031
2.596,1.264,0.691,-411.560,679.626,58.289
2.707,1.239,1.170,-436.401,659.790,45.044
2.886,1.430,1.592,-434.753,624.878,33.386
2.832,1.374,2.516,-377.075,574.280,7.263
2.885,1.211,3.093,-291.992,488.892,-35.950
2.842,1.349,3.252,-215.210,382.263,-66.833
2.796,1.402,3.071,-148.865,297.607,-72.815
2.748,1.301,2.792,-99.792,245.605,-61.157
2.674,1.317,2.803,-64.697,205.139,-49.561
2.457,1.265,2.702,-63.538,170.166,-39.978
2.016,1.179,3.160,-66.223,121.582,-25.085
2.030,1.451,3.920,-71.655,99.731,-8.484
1.846,1.118,2.458,-113.586,146.973,-14.099
1.485,0.958,2.798,-54.443,117.126,-16.113
1.381,0.913,2.431,11.658,99.426,-6.592
1.204,0.686,2.132,47.852,99.487,2.014
1.231,0.498,2.023,51.697,91.919,6.226
1.147,0.434,1.889,39.673,69.641,11.169
1.006,0.450,1.784,25.574,43.030,17.273
0.946,0.385,1.615,21.118,19.836,22.949
0.900,0.335,1.728,27.283,-4.272,26.306
1.068,0.422,1.571,26.794,-7.507,23.621
0.778,0.175,1.437,9.583,-0.183,9.644
0.712,0.377,1.111,9.583,-32.837,2.441
0.570,0.451,0.881,10.620,-44.861,-1.526
0.376,0.572,0.746,1.282,-57.556,-3.601
0.285,0.633,0.660,-8.850,-60.364,-2.502
0.244,0.698,0.640,-14.343,-55.481,4.150
0.253,0.679,0.665,-11.475,-42.725,13.000
0.296,0.615,0.679,-6.531,-26.611,20.386
0.360,0.530,0.704,-2.869,-12.146,27.954
0.470,0.442,0.775,1.404,-3.540,34.302
0.586,0.396,0.880,3.174,0.061,37.109
0.684,0.345,0.926,4.456,0.366,34.607
0.740,0.331,0.906,4.883,-3.906,27.832
0.723,0.337,0.897,7.446,-14.038,20.569
0.670,0.367,0.827,12.573,-23.987,12.817
0.611,0.386,0.732,17.578,-29.724,6.531
0.554,0.417,0.680,18.982,-32.410,3.296
0.500,0.441,0.630,15.381,-33.325,3.723
0.471,0.432,0.639,5.188,-33.386,7.996
0.479,0.390,0.684,-2.808,-31.311,12.451
0.498,0.350,0.724,-3.052,-24.902,15.320
0.493,0.311,0.721,2.380,-15.564,16.052
0.486,0.296,0.713,10.071,-7.141,15.747
0.468,0.288,0.708,17.944,-3.967,16.418
0.479,0.297,0.687,21.606,-3.540,15.564
0.486,0.287,0.685,20.386,-3.357,12.817
0.485,0.290,0.703,17.517,-5.981,9.521
0.480,0.304,0.746,13.000,-11.597,6.042
0.480,0.329,0.786,8.423,-17.944,3.296
0.481,0.334,0.773,5.066,-21.301,1.343
0.475,0.344,0.790,4.822,-22.095,0.183
0.473,0.351,0.799,5.920,-20.325,0.183
0.452,0.372,0.787,7.263,-16.174,0.610
0.460,0.388,0.804,6.409,-10.376,1.526
0.450,0.362,0.818,7.446,-10.132,4.517
0.447,0.358,0.801,10.254,-9.766,5.981
0.440,0.347,0.777,13.245,-9.277,6.836
0.430,0.339,0.750,15.015,-11.047,7.812
0.427,0.315,0.729,15.381,-14.343,7.996
0.431,0.317,0.743,15.381,-17.334,7.385
0.420,0.317,0.723,15.869,-18.005,5.676
0.422,0.313,0.736,16.724,-17.151,3.906
0.425,0.312,0.745,15.808,-14.526,3.235
0.434,0.301,0.758,15.381,-10.803,2.502
0.445,0.294,0.781,15.747,-6.836,1.709
0.446,0.288,0.793,16.785,-3.174,1.099
0.443,0.278,0.798,17.151,-0.732,0.671
0.440,0.279,0.791,15.076,-0.977,0.427
0.437,0.278,0.795,12.329,-2.747,0.061
0.438,0.296,0.817,9.094,-5.676,-0.549
0.418,0.309,0.830,6.775,-10.376,-1.099
0.407,0.317,0.827,5.188,-16.113,-1.038
0.398,0.307,0.821,4.272,-20.630,-0.366
0.377,0.313,0.797,4.517,-21.790,0.793
0.381,0.303,0.785,5.615,-20.752,1.831
0.375,0.288,0.776,7.202,-16.907,1.892
0.378,0.277,0.770,8.118,-12.085,2.258
0.390,0.275,0.769,8.057,-7.141,2.563
0.392,0.284,0.776,6.287,-2.197,2.563
0.396,0.298,0.808,3.784,3.235,2.502
0.413,0.317,0.858,1.282,6.470,2.686
0.435,0.328,0.916,-0.122,6.348,2.686
0.437,0.329,0.943,0.977,3.052,2.197
0.429,0.331,0.929,2.441,-2.258,1.465
0.421,0.324,0.903,4.456,-6.531,0.793
0.406,0.317,0.873,6.226,-9.094,0.183
0.390,0.317,0.842,6.958,-10.132,-0.183
0.376,0.311,0.817,6.409,-9.399,-0.122
0.370,0.312,0.808,4.944,-7.629,0.244
0.368,0.315,0.815,3.113,-5.371,0.305
0.365,0.321,0.830,1.465,-3.601,0.427
0.367,0.326,0.844,1.282,-1.953,1.160
0.371,0.327,0.853,2.258,-0.366,2.258
0.384,0.318,0.856,3.296,0.732,3.235
0.399,0.309,0.867,3.174,0.610,3.845
0.412,0.303,0.881,2.502,-0.183,3.540
0.419,0.320,0.896,3.174,-1.892,2.502
0.419,0.325,0.914,4.944,-5.371,0.916
0.400,0.328,0.885,6.592,-9.705,-0.793
0.380,0.329,0.854,6.836,-13.489,-1.465
0.367,0.325,0.832,6.226,-14.526,-1.099
0.362,0.319,0.815,5.249,-13.306,-0.305
0.362,0.309,0.820,4.761,-10.620,0.610
0.364,0.297,0.821,3.357,-7.568,1.709
0.370,0.289,0.829,1.465,-5.310,2.441

1.274,0.666,-0.564,-264.282,580.505,93.262
1.584,0.723,-0.042,-292.786,587.585,89.966
1.801,0.759,0.497,-313.416,581.665,75.195
1.872,0.801,0.940,-321.838,562.073,57.800
1.899,0.901,1.162,-316.284,539.734,50.476
1.969,1.030,1.193,-292.603,520.813,54.077
2.139,1.132,1.232,-265.686,500.488,62.256
2.367,1.242,1.375,-256.836,463.013,62.256
2.485,1.374,1.577,-261.719,405.518,53.162
2.570,1.541,1.616,-267.639,339.111,41.870
2.708,1.666,1.649,-253.845,278.809,32.898
2.879,1.700,1.787,-225.952,251.709,30.518
2.926,1.746,1.927,-194.702,261.963,28.137
2.874,1.734,2.102,-164.001,281.128,26.978
2.718,1.468,2.298,-142.700,274.780,30.640
2.864,1.419,2.520,-144.714,218.811,28.992
2.641,1.242,2.544,-160.828,162.659,37.537
2.549,1.163,3.418,-171.265,130.737,37.292
2.364,0.674,1.477,-156.799,132.629,21.851
2.122,0.793,2.407,-62.439,50.171,19.592
1.899,0.784,2.170,-26.306,19.653,11.902
1.700,0.661,1.860,-8.057,24.109,-2.075
1.380,0.651,1.339,10.559,12.512,-17.273
1.115,0.801,1.254,46.631,-25.146,-27.649
0.828,0.938,0.963,57.800,-58.594,-32.532
0.565,1.006,0.705,61.340,-69.763,-28.015
0.390,0.984,0.501,63.049,-82.214,-15.015
0.244,0.977,0.348,63.538,-86.731,-2.502
0.201,0.836,0.092,63.782,-79.895,8.301
0.300,0.674,0.146,67.261,-62.439,17.212
0.371,0.577,0.089,60.852,-32.959,26.245
0.473,0.450,0.193,50.049,-1.343,33.020
0.574,0.381,0.318,33.264,24.170,36.804
0.691,0.330,0.440,15.442,39.978,39.856
0.813,0.313,0.607,-0.122,43.884,39.917
0.948,0.306,0.703,-11.902,42.053,34.790
1.002,0.278,0.843,-13.184,30.212,23.743
0.928,0.306,0.899,-5.432,8.545,8.606
0.849,0.356,0.846,8.240,-16.968,-4.578
0.753,0.436,0.748,24.963,-41.382,-11.719
0.688,0.475,0.609,38.757,-55.420,-14.771
0.654,0.472,0.483,48.035,-60.974,-13.977
0.636,0.519,0.601,53.406,-61.646,-8.850
0.578,0.393,0.416,56.152,-55.908,-0.122
0.595,0.316,0.485,55.115,-46.021,6.165
0.662,0.261,0.545,45.715,-36.255,11.658
0.665,0.194,0.519,39.673,-23.560,11.292
0.662,0.202,0.547,33.813,-17.883,8.362
0.669,0.227,0.548,29.358,-14.465,4.761
0.692,0.289,0.600,24.780,-11.902,1.648
0.688,0.326,0.641,19.348,-11.841,-2.258
0.660,0.380,0.727,12.878,-19.226,-5.371
0.648,0.447,0.753,7.568,-29.602,-7.812
0.625,0.467,0.756,6.958,-37.659,-8.484
0.614,0.472,0.754,11.292,-41.992,-7.507
0.590,0.471,0.712,18.616,-43.213,-6.226
0.547,0.464,0.705,26.428,-42.908,-5.188
0.525,0.445,0.652,33.447,-41.870,-4.517
0.507,0.414,0.594,36.194,-40.466,-3.784
0.495,0.390,0.559,33.875,-38.025,-2.869
0.498,0.372,0.523,30.151,-33.875,-1.709
0.508,0.371,0.501,24.475,-28.503,-1.038
0.517,0.386,0.518,16.235,-21.851,-0.793
0.512,0.407,0.537,6.958,-14.282,-0.061
0.525,0.428,0.642,-1.404,-7.935,1.526
0.562,0.431,0.730,-7.324,-3.845,2.808
0.603,0.433,0.821,-8.179,-4.578,3.174
0.602,0.432,0.896,-4.761,-10.742,2.563
0.607,0.414,0.889,1.404,-19.226,0.977
0.599,0.396,0.845,8.240,-27.344,0.122
0.595,0.387,0.787,13.428,-32.471,0.305
0.600,0.372,0.743,16.968,-34.485,0.061
0.585,0.360,0.690,18.127,-33.508,-0.732
0.573,0.346,0.671,18.005,-31.128,-1.892
0.571,0.352,0.657,14.771,-27.039,-3.235
0.555,0.355,0.658,11.658,-22.461,-3.906
0.535,0.350,0.657,9.094,-17.761,-4.028
0.517,0.352,0.656,6.714,-13.123,-4.089
0.502,0.375,0.659,5.676,-8.545,-4.272
0.487,0.396,0.654,6.775,-4.883,-4.211
0.466,0.408,0.657,7.568,-2.747,-3.113
0.479,0.403,0.681,6.165,-2.808,-0.671
0.506,0.396,0.721,4.517,-4.761,1.648
0.522,0.386,0.745,4.333,-7.446,2.686
0.532,0.368,0.755,5.371,-10.132,2.991
0.545,0.349,0.763,6.348,-12.085,3.174
0.553,0.335,0.767,6.592,-13.550,2.808
0.548,0.325,0.768,5.981,-14.465,1.953
0.542,0.318,0.755,5.432,-15.442,0.549
0.539,0.327,0.739,5.188,-15.991,-0.854
0.524,0.332,0.720,4.700,-15.564,-1.709
0.510,0.348,0.711,2.991,-14.771,-2.136
0.508,0.361,0.699,1.282,-13.733,-2.258
0.494,0.371,0.702,0.366,-10.559,-2.014
0.485,0.377,0.706,-1.099,-7.080,-0.916
0.487,0.375,0.715,-2.930,-4.578,0.610
0.500,0.371,0.732,-3.662,-3.357,1.892
0.513,0.368,0.751,-3.357,-2.686,2.563
0.522,0.369,0.755,-1.770,-2.014,2.319
0.533,0.367,0.756,0.793,-1.648,1.770
0.532,0.362,0.768,1.892,-1.587,0.916
0.523,0.368,0.767,2.075,-2.686,-0.244
0.517,0.378,0.754,2.441,-3.723,-1.160
0.505,0.384,0.753,1.892,-4.456,-1.465
0.494,0.393,0.760,0.122,-4.578,-1.343
0.478,0.395,0.764,-1.160,-5.249,-0.732
0.472,0.390,0.758,-2.136,-6.287,0.000
0.473,0.379,0.753,-2.014,-6.531,0.427
0.484,0.361,0.745,-1.404,-4.761,0.549
0.484,0.361,0.762,1.465,-2.258,1.038
0.498,0.366,0.767,3.845,-1.221,0.793
0.505,0.368,0.784,3.967,-2.258,1.282
0.512,0.370,0.783,2.991,-3.662,1.709
0.511,0.371,0.781,1.404,-4.517,2.014
0.509,0.365,0.776,-0.244,-4.761,2.441
0.509,0.362,0.768,-1.160,-5.005,2.747
0.506,0.361,0.763,-1.465,-5.127,2.625
0.501,0.354,0.745,-1.282,-4.456,2.502
0.495,0.349,0.727,-1.587,-3.601,2.319

-0.020,0.211,-3.084,59.692,196.716,33.691
0.007,0.332,-3.732,59.143,247.253,35.400
0.021,0.469,-4.000,21.057,305.420,48.401
0.343,0.763,-4.000,-44.678,388.977,67.688
0.685,1.046,-4.000,-141.052,486.755,89.722
1.226,1.277,-3.875,-220.642,580.688,110.291
1.659,1.386,-3.503,-274.902,669.739,126.831
2.108,1.424,-3.172,-303.955,748.230,140.503
2.625,1.407,-2.749,-333.252,811.462,147.461
2.988,1.347,-2.035,-381.958,855.652,142.883
3.450,1.371,-1.225,-420.898,873.047,134.277
3.706,1.312,-0.329,-457.520,849.976,112.854
3.913,1.347,0.713,-490.356,794.495,85.510
3.880,1.538,1.550,-507.202,717.346,51.575
3.863,1.480,2.200,-469.727,629.333,5.920
3.600,1.520,3.043,-357.910,504.700,-44.312
3.454,1.658,2.771,-244.934,400.330,-78.247
3.201,1.719,2.280,-186.646,319.580,-79.468
3.244,1.877,2.488,-175.903,252.197,-49.500
3.076,1.714,2.354,-170.105,208.374,-16.968
2.864,1.698,2.446,-169.434,187.683,-8.240
2.660,1.741,2.456,-168.945,174.438,-9.521
2.500,1.734,2.530,-148.804,168.274,-5.981
2.350,1.774,2.592,-118.530,155.334,0.122
2.052,1.679,2.569,-73.975,134.888,10.132
1.723,1.665,2.985,-5.920,97.961,34.180
2.064,1.535,2.407,-6.958,111.023,40.955
1.689,1.090,2.359,-10.010,141.541,21.606
1.601,0.807,2.109,72.571,100.342,25.940
1.514,0.667,1.850,126.099,81.787,25.574
1.318,0.418,1.559,131.958,57.312,19.958
1.213,0.293,1.686,111.816,28.320,6.226
1.106,0.191,0.929,77.393,11.047,-7.019
0.878,0.238,1.081,37.537,-20.203,-14.099
0.716,0.372,0.919,-2.991,-33.752,-9.827
0.612,0.460,0.803,-20.386,-35.461,-2.258
0.535,0.484,0.796,-20.813,-40.405,-0.366
0.527,0.517,0.748,-10.193,-38.147,-1.587
0.512,0.555,0.652,11.230,-24.780,-2.686
0.491,0.535,0.647,29.724,-11.230,-0.977
0.421,0.813,1.898,32.898,0.916,6.287
0.517,0.643,0.857,25.024,10.376,12.207
0.515,0.548,0.898,-9.277,-9.460,15.747
0.548,0.514,0.823,-11.719,-16.541,19.592
0.559,0.494,0.824,0.488,-30.884,22.278
0.565,0.459,0.720,16.052,-39.246,20.325
0.550,0.427,0.668,27.283,-45.166,16.418
0.566,0.387,0.593,33.020,-49.072,13.977
0.583,0.348,0.549,33.508,-49.133,12.939
0.618,0.314,0.594,31.921,-44.312,12.024
0.661,0.298,0.637,26.306,-34.119,9.094
0.684,0.263,0.648,19.226,-22.888,3.906
0.700,0.244,0.677,17.151,-15.991,-2.502
0.698,0.334,0.701,19.836,-13.245,-6.531
0.659,0.388,0.739,22.095,-10.742,-5.737
0.621,0.356,0.932,17.090,-13.733,-1.526
0.588,0.390,0.799,10.437,-19.043,3.418
0.564,0.351,0.802,10.559,-26.001,5.127
0.553,0.316,0.809,12.573,-38.757,7.690
0.543,0.290,0.753,15.625,-42.542,8.362
0.520,0.285,0.717,19.043,-41.626,6.958
0.516,0.270,0.676,23.682,-38.452,4.272
0.509,0.274,0.663,26.062,-33.569,1.465
0.511,0.278,0.654,24.170,-27.649,-0.610
0.515,0.258,0.656,20.386,-21.851,-2.930
0.523,0.269,0.676,16.296,-17.761,-4.089
0.518,0.278,0.707,12.573,-14.343,-4.517
0.532,0.308,0.734,7.996,-13.184,-4.456
0.538,0.326,0.772,4.150,-13.916,-4.211
0.543,0.333,0.792,3.174,-17.761,-3.479
0.538,0.322,0.792,1.892,-23.743,-2.502
0.529,0.316,0.763,0.854,-28.748,-2.197
0.513,0.302,0.749,1.099,-30.212,-3.235
0.501,0.300,0.718,1.465,-27.527,-4.333
0.487,0.284,0.716,4.272,-21.973,-5.066
0.486,0.289,0.729,5.737,-15.625,-5.981
0.501,0.283,0.729,6.531,-10.437,-6.226
0.509,0.319,0.854,7.324,-7.324,-6.287
0.517,0.311,0.775,7.019,-2.502,-6.897
0.503,0.332,0.847,9.460,-2.991,-6.470
0.498,0.356,0.873,9.583,-5.371,-4.883
0.506,0.333,0.843,11.169,-4.395,-4.150
0.501,0.323,0.854,13.245,-5.005,-3.784
0.499,0.322,0.841,15.686,-5.615,-3.357
0.486,0.305,0.808,18.066,-6.042,-2.747
0.481,0.281,0.778,18.799,-6.653,-2.625
0.484,0.280,0.835,18.738,-7.019,-2.441
0.487,0.257,0.798,18.921,-6.165,-3.052
0.484,0.259,0.823,19.897,-7.751,-4.089
0.473,0.262,0.830,18.860,-10.010,-4.456
0.466,0.262,0.813,16.235,-11.536,-4.456
0.464,0.262,0.825,11.963,-14.893,-4.333
0.465,0.256,0.807,7.019,-18.005,-4.395
0.460,0.255,0.805,4.272,-19.714,-4.761
0.448,0.258,0.783,2.869,-19.592,-5.432
0.438,0.270,0.794,2.075,-18.372,-5.798
0.432,0.280,0.779,2.563,-15.808,-5.676
0.423,0.283,0.776,3.540,-13.000,-5.371
0.414,0.295,0.778,4.272,-9.460,-4.761
0.409,0.308,0.785,4.639,-5.127,-4.211
0.412,0.314,0.800,4.761,-1.526,-3.357
0.422,0.314,0.823,4.028,1.709,-1.526
0.440,0.305,0.853,2.441,3.540,0.061
0.460,0.300,0.877,0.366,2.319,0.916
0.475,0.292,0.888,0.671,-0.427,1.221
0.488,0.282,0.884,2.808,-2.808,0.732
0.488,0.275,0.859,6.042,-4.456,-0.122
0.481,0.266,0.825,8.179,-5.249,-1.282
0.470,0.268,0.805,8.118,-5.371,-2.258
0.462,0.274,0.797,6.348,-4.761,-2.991
0.456,0.278,0.805,3.296,-4.272,-3.418
0.456,0.285,0.823,-0.122,-3.967,-3.601
0.450,0.304,0.836,-2.136,-4.150,-3.601
0.441,0.312,0.845,-2.319,-4.028,-2.991
0.435,0.327,0.845,-1.526,-3.601,-2.136
0.428,0.334,0.845,-0.183,-2.747,-0.732
0.430,0.327,0.840,0.854,-2.319,0.916
0.436,0.318,0.839,1.587,-2.136,2.014
0.443,0.306,0.834,3.174,-2.441,2.808

0.090,0.185,-2.368,-61.951,260.803,34.363
0.255,0.297,-2.289,-97.168,320.251,37.720
0.435,0.350,-2.122,-132.812,374.756,45.288
0.646,0.423,-1.918,-159.241,424.500,53.284
0.895,0.489,-1.728,-178.528,469.238,59.265
1.036,0.468,-1.539,-190.796,505.432,61.768
1.094,0.399,-1.337,-195.740,534.180,62.378
1.235,0.394,-1.249,-197.937,556.152,62.622
1.287,0.307,-1.083,-206.909,567.932,59.998
1.379,0.260,-0.885,-221.924,573.486,56.396
1.558,0.260,-0.614,-238.403,575.134,50.964
1.722,0.347,-0.226,-258.667,574.829,41.138
1.865,0.331,0.256,-277.588,571.960,24.597
1.930,0.497,0.734,-285.767,564.148,7.507
1.945,0.724,1.121,-278.259,549.072,-6.897
1.809,0.929,1.373,-254.822,525.452,-17.334
1.625,1.108,1.455,-233.093,489.258,-18.005
1.541,1.284,1.426,-229.492,438.782,-9.216
1.718,1.349,1.496,-234.192,389.771,4.456
1.942,1.322,1.656,-236.084,355.652,14.587
2.212,1.315,1.785,-228.210,338.623,16.907
2.315,1.294,1.814,-212.524,330.933,14.709
2.355,1.248,1.945,-196.045,315.308,10.986
2.390,1.286,2.015,-185.608,288.818,10.437
2.454,1.365,2.475,-172.913,260.620,13.428
2.512,1.419,2.514,-198.608,253.479,10.315
2.389,1.382,2.633,-221.252,232.544,-0.854
2.068,1.327,2.766,-222.168,174.316,-8.484
2.106,1.374,2.696,-214.111,94.421,-12.634
1.855,1.425,2.519,-205.383,60.059,-10.132
1.649,1.448,2.416,-183.289,40.833,-17.090
1.501,1.461,2.291,-135.620,35.583,-21.301
1.351,1.424,2.099,-70.374,42.542,-11.230
1.192,1.232,1.867,11.780,39.368,1.404
1.114,1.093,1.970,93.811,24.048,10.315
1.102,1.013,1.275,126.770,24.536,8.362
0.798,0.972,1.178,136.108,19.531,-3.296
0.579,0.751,0.465,152.222,-7.263,-5.554
0.375,0.791,0.377,145.874,-27.710,-2.563
0.273,0.747,0.207,110.352,-33.447,5.066
0.298,0.697,0.156,64.453,-27.405,14.648
0.382,0.675,0.210,26.611,-15.686,23.437
0.426,0.589,0.339,2.319,-1.648,26.550
0.548,0.486,0.400,-6.897,21.301,24.048
0.619,0.524,0.539,-18.433,40.100,24.231
0.736,0.540,0.820,-29.663,43.518,25.269
0.825,0.542,1.001,-29.236,32.898,22.156
0.844,0.533,1.092,-20.325,13.733,16.663
0.807,0.497,1.067,-4.150,-9.338,10.376
0.752,0.465,0.978,18.433,-31.494,5.310
0.692,0.473,0.856,39.246,-47.058,2.136
0.606,0.475,0.721,51.880,-51.025,-1.953
0.562,0.481,0.624,60.730,-48.096,-4.211
0.540,0.455,0.549,63.110,-39.124,-3.723
0.496,0.427,0.529,64.514,-35.278,-0.122
0.529,0.337,0.514,63.660,-29.968,4.028
0.565,0.304,0.542,50.720,-22.522,8.118
0.610,0.249,0.603,36.865,-16.418,10.132
0.661,0.202,0.665,27.771,-10.681,10.010
0.699,0.145,0.655,23.804,-8.118,6.775
0.696,0.183,0.825,26.733,-12.939,1.892
0.681,0.189,0.755,26.184,-18.860,-2.930
0.642,0.231,0.778,26.245,-23.743,-5.432
0.616,0.265,0.733,23.132,-27.466,-6.592
0.585,0.285,0.731,20.081,-30.151,-5.920
0.564,0.305,0.721,16.663,-31.921,-4.395
0.553,0.300,0.707,15.259,-30.640,-2.808
0.532,0.313,0.706,13.245,-28.198,-1.160
0.537,0.291,0.691,13.916,-25.696,-0.793
0.535,0.285,0.685,16.602,-23.071,-1.282
0.520,0.279,0.630,17.761,-19.836,-2.136
0.518,0.305,0.708,18.127,-17.395,-2.930
0.510,0.276,0.607,17.029,-12.207,-3.540
0.509,0.288,0.695,17.029,-11.353,-3.723
0.517,0.313,0.702,13.123,-9.827,-4.272
0.505,0.320,0.731,12.146,-8.728,-5.127
0.500,0.333,0.737,12.024,-10.071,-5.737
0.500,0.343,0.721,12.756,-10.254,-6.165
0.490,0.349,0.721,12.756,-11.108,-6.165
0.487,0.352,0.724,11.414,-11.719,-5.615
0.494,0.346,0.736,8.240,-12.695,-4.456
0.504,0.344,0.758,4.639,-15.198,-3.784
0.509,0.338,0.760,1.282,-17.029,-3.723
0.514,0.340,0.769,-1.160,-17.700,-3.662
0.510,0.334,0.780,-3.235,-17.822,-3.723
0.507,0.331,0.787,-4.211,-17.761,-3.784
0.512,0.334,0.790,-3.296,-16.663,-3.906
0.507,0.336,0.794,-0.732,-14.526,-4.150
0.501,0.336,0.792,1.953,-11.536,-4.578
0.496,0.344,0.791,4.272,-9.094,-5.127
0.488,0.362,0.798,6.042,-7.019,-5.615
0.477,0.376,0.804,6.470,-6.287,-5.615
0.472,0.389,0.809,5.981,-6.653,-5.371
0.474,0.391,0.809,7.263,-6.409,-4.761
0.475,0.386,0.796,9.888,-5.981,-4.211
0.475,0.380,0.785,10.437,-6.409,-3.601
0.478,0.372,0.778,8.240,-7.874,-2.625
0.477,0.358,0.770,5.920,-9.033,-1.770
0.482,0.351,0.761,4.578,-9.460,-1.465
0.481,0.346,0.757,3.967,-8.911,-1.526
0.478,0.339,0.765,3.418,-7.446,-1.953
0.476,0.350,0.770,2.380,-5.737,-2.014
0.474,0.362,0.775,2.197,-3.723,-2.258
0.473,0.367,0.783,2.319,-1.648,-1.953
0.474,0.372,0.798,1.953,-0.122,-1.221
0.482,0.375,0.810,2.991,0.183,-0.610
0.493,0.369,0.810,5.066,0.366,-0.427
0.497,0.361,0.814,5.798,-0.366,-0.549
0.495,0.359,0.817,4.089,-3.479,-0.427
0.492,0.352,0.807,2.136,-6.592,-0.427
0.490,0.341,0.774,2.197,-8.179,-0.854
0.485,0.340,0.770,3.113,-7.446,-1.343
0.478,0.339,0.772,2.319,-5.859,-1.404
0.481,0.340,0.774,0.427,-5.188,-1.404
0.479,0.344,0.786,-1.221,-5.066,-1.343
0.475,0.347,0.786,-1.953,-4.700,-1.465
0.473,0.356,0.797,-1.343,-4.089,-1.282
0.470,0.367,0.806,-0.732,-3.479,-0.549
0.471,0.368,0.809,0.244,-2.991,0.305

0.058,0.324,-2.701,10.681,239.380,24.658
0.120,0.474,-2.971,-3.967,279.663,30.518
0.206,0.618,-3.146,-35.950,345.093,42.053
0.362,0.667,-3.102,-77.942,423.035,60.791
0.643,0.743,-2.970,-119.324,503.845,81.909
0.988,0.782,-2.671,-163.330,578.308,101.563
1.271,0.797,-2.172,-209.167,638.855,116.150
1.677,0.842,-1.750,-255.615,678.894,122.803
2.012,0.827,-1.068,-312.012,699.097,118.286
2.331,0.864,-0.327,-356.995,702.759,107.910
2.515,0.956,0.444,-386.169,677.368,88.684
2.509,1.017,1.074,-403.564,633.850,66.589
2.618,1.072,1.622,-399.902,587.219,46.875
2.791,1.105,2.605,-373.962,537.537,23.193
2.891,1.289,2.900,-320.984,474.304,-3.052
2.784,1.285,3.180,-244.324,394.531,-28.259
2.809,1.165,2.881,-160.583,339.050,-36.682
2.549,1.270,2.651,-113.159,294.556,-31.860
2.505,1.106,2.497,-94.421,252.258,-14.099
2.514,1.036,2.440,-113.647,226.562,1.404
2.448,0.902,2.491,-148.193,207.886,11.658
2.291,0.828,2.569,-163.635,183.533,12.512
2.142,0.771,2.448,-158.508,158.264,8.362
1.910,0.578,2.149,-120.239,127.075,11.780
1.692,0.667,2.807,-52.612,83.496,26.489
1.865,0.956,2.360,-67.871,105.591,23.987
1.537,0.554,1.583,-120.911,141.052,0.488
1.486,0.404,1.627,-112.305,88.379,-1.526
1.475,0.622,1.838,-95.093,68.420,-10.376
1.315,0.721,1.768,-89.478,49.988,-7.385
1.141,0.762,1.686,-78.003,46.936,-2.075
1.025,0.766,1.455,-45.837,49.683,1.221
0.983,0.692,1.297,-0.183,37.109,1.648
0.803,0.699,1.292,23.193,1.099,2.136
0.735,0.666,1.044,32.715,-12.451,-0.977
0.593,0.622,0.843,46.936,-23.193,-3.662
0.496,0.633,0.753,48.645,-37.964,-4.089
0.427,0.627,0.630,41.504,-42.603,-3.357
0.382,0.627,0.590,32.532,-41.809,-0.732
0.354,0.635,0.596,23.132,-37.415,3.174
0.379,0.745,0.831,11.414,-27.893,6.226
0.335,0.618,0.763,5.798,-23.193,9.094
0.392,0.611,0.731,-4.333,-23.987,13.733
0.443,0.584,0.777,-4.578,-18.616,15.320
0.466,0.557,0.827,-1.221,-24.902,18.188
0.512,0.529,0.846,7.996,-36.133,19.165
0.549,0.509,0.832,18.250,-46.448,19.043
0.589,0.499,0.790,22.583,-47.974,17.700
0.611,0.454,0.760,23.560,-44.739,14.343
0.594,0.416,0.744,24.963,-41.016,8.789
0.599,0.404,0.744,25.452,-36.072,2.136
0.584,0.380,0.721,26.672,-31.616,-1.343
0.579,0.369,0.735,27.161,-28.137,-2.625
0.570,0.382,0.739,25.818,-26.306,-2.563
0.571,0.391,0.762,27.161,-25.513,-0.671
0.552,0.394,0.781,27.283,-22.888,1.709
0.541,0.379,0.780,27.161,-24.963,3.479
0.535,0.365,0.799,28.564,-31.006,6.165
0.530,0.349,0.756,30.579,-35.828,7.507
0.532,0.330,0.727,33.447,-38.025,8.240
0.526,0.309,0.711,35.095,-37.659,8.240
0.511,0.299,0.714,32.593,-35.339,7.141
0.513,0.292,0.727,29.907,-31.067,5.493
0.513,0.284,0.751,27.710,-23.804,4.211
0.511,0.275,0.797,26.611,-16.357,2.808
0.514,0.282,0.831,26.611,-10.315,1.587
0.515,0.268,0.833,28.320,-6.897,1.526
0.506,0.251,0.829,28.137,-6.653,0.732
0.500,0.249,0.814,27.527,-7.751,-0.488
0.488,0.261,0.796,27.039,-8.789,-1.648
0.460,0.264,0.785,24.658,-10.864,-2.319
0.443,0.275,0.775,19.531,-14.771,-2.380
0.431,0.300,0.786,13.611,-18.555,-1.770
0.423,0.308,0.796,8.118,-21.179,-0.488
0.411,0.314,0.796,5.615,-22.156,0.610
0.411,0.327,0.811,4.578,-21.790,1.465
0.405,0.319,0.815,7.629,-22.034,2.930
0.408,0.325,0.807,11.841,-20.447,3.723
0.423,0.306,0.811,15.930,-17.761,4.944
0.437,0.280,0.818,18.921,-14.709,5.798
0.449,0.262,0.825,19.897,-12.024,5.127
0.455,0.248,0.823,19.958,-10.986,3.784
0.460,0.242,0.819,18.494,-11.169,2.441
0.455,0.238,0.826,16.785,-11.841,0.916
0.443,0.239,0.819,15.320,-11.780,-0.427
0.434,0.251,0.826,13.306,-11.963,-1.465
0.428,0.253,0.829,11.475,-11.658,-2.075
0.430,0.261,0.830,10.620,-10.254,-2.319
0.425,0.262,0.827,10.742,-8.545,-2.197
0.416,0.262,0.824,7.996,-7.812,-1.892
0.416,0.266,0.828,3.723,-7.690,-1.160
0.417,0.267,0.834,1.404,-6.653,-0.122
0.423,0.269,0.852,1.770,-4.761,0.305
0.427,0.274,0.871,4.089,-3.662,0.183
0.416,0.285,0.870,5.615,-3.662,-0.061
0.405,0.291,0.859,5.249,-4.211,0.000
0.396,0.297,0.850,4.944,-4.700,0.549
0.391,0.301,0.840,5.615,-4.578,1.465
0.386,0.291,0.824,6.348,-3.479,2.319
0.391,0.283,0.813,8.972,-1.221,3.296
0.398,0.272,0.798,10.925,1.709,4.089
0.400,0.257,0.798,7.507,4.028,5.127
0.411,0.252,0.822,0.488,4.272,5.859
0.429,0.247,0.846,-3.113,4.211,6.409
0.448,0.235,0.868,-3.357,5.310,5.981
0.458,0.229,0.886,-1.648,5.981,4.761
0.462,0.234,0.893,0.854,4.944,3.296
0.461,0.239,0.903,2.991,2.014,2.075
0.458,0.244,0.895,4.456,-2.563,1.099
0.449,0.243,0.870,5.554,-5.676,0.305
0.435,0.240,0.844,7.263,-6.592,-0.305
0.424,0.242,0.823,8.606,-5.676,-0.916
0.415,0.245,0.813,8.789,-3.906,-0.977
0.406,0.246,0.813,6.714,-2.441,-0.610
0.399,0.256,0.821,2.930,-1.221,-0.183
0.397,0.265,0.837,-1.038,-1.099,0.427
0.395,0.264,0.842,-3.296,0.061,1.099
0.398,0.270,0.861,-2.991,1.343,2.197
0.414,0.256,0.865,-1.160,1.892,2.930

0.169,0.322,-2.427,-47.852,355.591,20.508
0.320,0.309,-2.492,-63.538,401.001,32.166
0.557,0.342,-2.438,-93.628,449.951,45.044
0.831,0.429,-2.284,-135.986,495.972,57.007
1.050,0.474,-2.036,-182.129,535.706,64.819
1.314,0.566,-1.826,-226.562,568.970,69.519
1.492,0.669,-1.518,-273.193,595.642,69.458
1.718,0.749,-1.123,-310.913,618.042,67.017
2.089,0.808,-0.610,-336.670,631.714,59.875
2.409,0.906,0.100,-357.361,635.254,43.518
2.508,1.046,0.843,-357.239,623.718,18.555
2.481,1.023,1.292,-334.534,601.624,-10.925
2.426,1.089,1.676,-297.363,568.298,-27.527
2.340,1.195,1.901,-255.249,519.348,-36.804
2.344,1.313,1.991,-219.666,457.153,-39.063
2.307,1.319,1.981,-196.533,391.418,-33.997
2.303,1.411,1.934,-186.340,329.407,-26.733
2.328,1.384,1.746,-183.960,275.513,-19.531
2.348,1.402,1.581,-178.772,246.155,-21.057
2.329,1.471,1.573,-181.396,233.215,-22.400
2.322,1.457,1.594,-183.167,229.736,-19.043
2.368,1.420,1.896,-170.288,222.229,-10.742
2.444,1.418,2.361,-151.489,220.703,-4.883
1.960,0.937,3.141,-180.542,223.206,-16.968
2.891,1.306,2.572,-204.224,170.349,-41.504
2.097,1.429,2.720,-207.581,146.545,-43.518
1.882,1.225,2.415,-168.823,115.662,-53.406
1.791,1.372,2.327,-114.502,87.097,-55.542
1.493,1.406,2.085,-46.692,84.595,-29.541
1.447,1.032,2.126,12.085,44.495,-2.502
1.155,0.881,2.127,28.931,-2.197,5.676
1.579,1.061,2.437,40.100,-56.519,15.747
1.090,0.786,1.766,17.334,-24.902,3.723
0.989,0.747,1.430,40.649,-21.362,-8.850
0.840,0.729,1.220,75.989,-41.382,-13.489
0.682,0.742,0.928,84.900,-44.800,-13.489
0.566,0.818,0.882,82.764,-50.842,-10.376
0.471,0.688,0.708,68.970,-56.152,-7.385
0.396,0.716,0.637,54.199,-62.378,-7.507
0.265,0.749,0.585,39.001,-61.218,-1.709
0.202,0.769,0.625,29.114,-56.274,8.911
0.221,0.779,0.626,25.574,-50.232,17.639
0.226,0.742,0.622,28.076,-40.344,20.447
0.263,0.680,0.602,32.043,-30.334,21.729
0.297,0.612,0.574,36.743,-21.912,21.362
0.344,0.575,0.531,41.992,-14.954,21.851
0.412,0.532,0.588,45.410,-14.282,21.973
0.479,0.437,0.651,42.175,-17.944,19.470
0.560,0.393,0.673,36.499,-24.414,15.808
0.613,0.352,0.691,31.372,-31.921,12.207
0.655,0.311,0.713,25.146,-39.856,7.141
0.667,0.319,0.729,15.808,-46.143,1.892
0.656,0.345,0.750,9.094,-49.438,-1.709
0.638,0.372,0.765,5.432,-50.842,-3.601
0.624,0.383,0.782,5.615,-50.415,-4.089
0.604,0.397,0.781,9.338,-47.424,-4.822
0.577,0.401,0.759,14.709,-43.762,-6.104
0.541,0.418,0.744,19.470,-41.016,-6.897
0.498,0.417,0.673,23.621,-38.696,-5.981
0.479,0.420,0.711,26.245,-38.269,-4.150
0.464,0.421,0.720,27.710,-34.180,-2.014
0.470,0.408,0.705,31.311,-27.039,0.061
0.464,0.377,0.699,35.400,-21.667,1.709
0.485,0.345,0.717,35.583,-20.142,3.296
0.499,0.318,0.727,33.386,-19.226,3.662
0.509,0.301,0.720,29.541,-17.883,2.075
0.497,0.300,0.751,26.001,-17.761,0.305
0.497,0.301,0.777,22.949,-19.043,-0.427
0.503,0.305,0.787,19.897,-22.461,-0.977
0.501,0.305,0.811,17.578,-26.672,-2.014
0.500,0.304,0.793,17.578,-28.870,-3.235
0.480,0.304,0.752,18.433,-27.649,-4.761
0.458,0.324,0.732,19.409,-26.978,-6.042
0.442,0.340,0.695,20.020,-24.719,-5.676
0.426,0.337,0.675,18.433,-21.118,-4.761
0.410,0.340,0.673,14.465,-16.785,-4.456
0.398,0.362,0.686,9.094,-13.062,-3.662
0.394,0.375,0.714,1.892,-9.338,-1.465
0.408,0.371,0.752,-3.357,-6.836,1.465
0.431,0.362,0.780,-2.930,-4.395,2.930
0.448,0.352,0.800,1.953,-0.793,3.052
0.457,0.348,0.814,9.033,2.869,2.380
0.463,0.339,0.812,15.564,3.845,1.770
0.466,0.332,0.807,20.020,1.465,1.099
0.462,0.331,0.783,22.339,-1.831,-0.122
0.457,0.327,0.754,23.804,-3.174,-1.465
0.450,0.315,0.726,23.560,-2.991,-2.686
0.436,0.313,0.714,18.677,-2.563,-3.662
0.419,0.344,0.733,12.085,-3.174,-3.845
0.409,0.361,0.745,4.578,-6.348,-2.441
0.408,0.356,0.753,-4.456,-12.146,0.671
0.421,0.346,0.766,-9.277,-16.541,2.563
0.421,0.339,0.759,-8.789,-15.076,2.563
0.412,0.342,0.759,-5.615,-9.949,1.953
0.410,0.354,0.766,-2.869,-5.371,1.892
0.413,0.360,0.776,-1.099,-2.686,2.014
0.418,0.356,0.781,0.305,-0.549,2.258
0.425,0.352,0.787,1.526,0.854,2.258
0.435,0.349,0.794,2.380,1.587,2.319
0.441,0.346,0.813,2.991,2.075,1.709
0.450,0.349,0.825,4.395,1.587,0.977
0.447,0.349,0.824,4.822,-0.183,0.305
0.445,0.349,0.822,2.930,-2.930,-0.244
0.443,0.352,0.823,1.099,-5.615,-0.854
0.431,0.369,0.816,0.244,-7.019,-1.160
0.422,0.371,0.806,0.244,-6.592,-0.854
0.422,0.371,0.803,-0.305,-5.798,0.183
0.425,0.372,0.805,0.122,-4.578,0.916
0.419,0.366,0.800,2.014,-2.319,1.038
0.422,0.361,0.793,2.991,-0.793,1.404
0.429,0.354,0.799,1.465,-0.732,2.197
0.438,0.341,0.805,0.305,-0.549,2.441
0.448,0.342,0.823,0.488,0.366,2.014
0.447,0.348,0.844,1.343,0.244,1.221
0.440,0.354,0.849,2.075,-1.404,0.610
0.436,0.359,0.848,2.991,-3.601,0.244
0.426,0.368,0.845,3.662,-5.493,0.305
0.415,0.375,0.838,3.418,-7.629,0.793
0.403,0.378,0.828,2.319,-9.766,1.648

0.823,0.353,-1.519,-175.842,507.874,48.889
0.995,0.409,-1.427,-200.500,541.382,51.453
1.166,0.525,-1.241,-228.271,571.167,53.955
1.327,0.631,-1.047,-254.089,598.816,56.946
1.505,0.735,-0.805,-277.893,622.742,59.021
1.731,0.910,-0.541,-305.115,643.372,58.960
2.000,1.054,-0.271,-323.242,658.264,57.800
2.481,1.107,0.237,-336.365,665.771,54.199
2.877,1.246,1.060,-351.685,651.367,41.504
2.900,1.443,1.872,-345.581,606.995,19.775
2.731,1.501,2.310,-299.927,537.048,0.549
2.693,1.519,2.292,-236.877,458.862,-0.427
2.700,1.458,2.097,-185.425,385.620,13.184
2.776,1.316,1.944,-159.241,321.106,26.001
2.788,1.263,1.904,-157.410,263.184,29.968
2.671,1.308,1.785,-167.297,207.825,28.687
2.516,1.425,2.010,-167.542,154.480,27.527
2.415,1.574,2.200,-179.321,133.667,23.254
2.214,1.500,2.087,-207.581,147.644,6.775
2.216,1.458,2.470,-200.378,136.169,-20.020
1.991,1.404,2.472,-161.804,122.864,-29.053
1.832,1.251,2.303,-87.463,130.310,-31.372
1.773,0.974,2.222,-5.371,126.953,-24.414
1.678,0.807,1.948,66.833,117.493,-7.202
1.622,0.586,1.629,111.023,105.286,12.695
1.586,0.328,1.389,125.183,79.285,23.804
1.517,0.184,1.190,108.459,37.170,23.926
1.364,0.126,1.178,72.021,-14.709,19.226
1.468,0.435,1.485,19.653,-44.006,11.963
1.058,0.441,0.818,-52.307,-30.945,-8.484
1.029,0.492,0.967,-52.185,-45.349,-18.005
0.799,0.690,0.905,-30.823,-52.979,-21.545
0.703,0.797,0.911,-14.709,-56.946,-20.203
0.552,0.885,0.868,-5.127,-42.786,-15.564
0.546,0.750,0.677,5.432,-24.292,-9.949
0.438,0.718,0.656,18.677,-13.245,-6.104
0.387,0.742,0.695,19.592,-8.728,0.244
0.437,0.735,0.739,11.597,-7.874,7.080
0.458,0.681,0.716,11.780,-8.972,13.733
0.490,0.612,0.672,17.334,-13.245,18.921
0.531,0.559,0.668,22.400,-18.188,21.790
0.570,0.458,0.593,25.696,-19.958,23.865
0.600,0.411,0.575,25.208,-22.949,25.757
0.629,0.346,0.586,22.705,-27.893,24.353
0.668,0.336,0.610,16.541,-32.349,18.860
0.663,0.343,0.571,8.545,-35.767,12.695
0.637,0.325,0.581,3.906,-39.368,7.446
0.633,0.379,0.625,2.808,-43.518,4.395
0.634,0.389,0.606,0.549,-43.335,3.357
0.631,0.389,0.597,-0.916,-39.246,3.174
0.621,0.386,0.607,4.395,-35.095,3.296
0.619,0.384,0.581,12.207,-28.748,2.808
0.600,0.388,0.553,19.409,-19.531,2.319
0.582,0.396,0.563,24.597,-11.841,3.479
0.576,0.385,0.575,25.757,-9.155,6.531
0.588,0.365,0.596,25.146,-8.850,8.606
0.608,0.343,0.614,23.804,-9.216,8.972
0.618,0.320,0.625,22.705,-8.789,7.507
0.630,0.310,0.659,22.644,-8.179,4.883
0.630,0.318,0.685,23.071,-8.179,0.977
0.622,0.333,0.698,25.452,-9.399,-2.563
0.606,0.344,0.691,28.320,-11.047,-4.211
0.595,0.348,0.670,29.358,-13.245,-4.517
0.585,0.352,0.653,28.687,-15.198,-4.639
0.576,0.348,0.641,27.039,-16.235,-4.456
0.571,0.351,0.629,23.193,-17.029,-3.662
0.570,0.350,0.623,16.907,-17.090,-1.892
0.576,0.337,0.625,9.155,-16.785,0.000
0.586,0.327,0.632,3.235,-15.564,1.038
0.595,0.336,0.652,1.038,-11.414,0.977
0.603,0.338,0.654,1.343,-6.165,1.038
0.608,0.339,0.672,3.845,-2.075,0.977
0.615,0.357,0.676,4.883,0.732,0.366
0.616,0.360,0.692,4.761,1.770,-0.305
0.609,0.364,0.711,2.808,-0.549,-0.793
0.601,0.372,0.749,0.427,-5.859,-0.854
0.600,0.389,0.743,0.610,-10.864,-1.404
0.585,0.375,0.728,5.127,-14.648,-2.014
0.571,0.374,0.724,7.385,-20.264,-1.526
0.565,0.376,0.714,6.897,-21.301,-1.953
0.557,0.367,0.694,7.446,-20.874,-2.258
0.552,0.373,0.694,8.118,-19.226,-2.502
0.552,0.368,0.692,9.338,-15.442,-2.441
0.557,0.363,0.696,10.864,-11.047,-1.953
0.560,0.356,0.705,12.024,-6.897,-1.343
0.565,0.351,0.704,13.489,-3.784,-1.526
0.559,0.347,0.692,13.672,-1.587,-1.526
0.551,0.347,0.684,10.498,-0.854,-1.160
0.547,0.346,0.685,5.615,-1.709,-0.305
0.544,0.342,0.687,0.366,-2.930,0.366
0.542,0.349,0.692,-3.723,-3.845,0.366
0.540,0.359,0.699,-6.714,-4.578,0.610
0.539,0.366,0.706,-8.789,-5.188,1.221
0.548,0.373,0.722,-8.423,-5.188,1.648
0.556,0.376,0.718,-5.920,-4.272,1.343
0.557,0.386,0.735,-3.662,-3.296,0.916
0.559,0.389,0.738,-1.831,-1.770,0.427
0.560,0.386,0.734,0.427,-0.427,0.061
0.562,0.383,0.730,2.808,-0.183,-0.183
0.564,0.370,0.719,4.761,0.366,-0.122
0.568,0.358,0.706,5.798,1.099,-0.183
0.566,0.352,0.699,6.287,1.587,-0.366
0.563,0.357,0.692,6.042,2.014,-0.671
0.554,0.367,0.692,4.395,2.808,-1.160
0.543,0.376,0.700,0.732,2.380,-1.099
0.546,0.380,0.719,-4.272,0.183,0.244
0.552,0.380,0.737,-6.897,-1.953,1.160
0.553,0.380,0.739,-6.165,-2.502,1.465
0.554,0.375,0.728,-3.662,-1.709,1.343
0.552,0.376,0.716,-0.366,-0.061,1.404
0.556,0.376,0.698,2.869,1.038,1.404
0.561,0.371,0.700,4.272,1.343,1.404
0.565,0.370,0.708,4.150,0.549,1.404
0.565,0.368,0.708,2.991,-1.099,1.160
0.565,0.364,0.706,1.953,-2.258,0.854
0.565,0.364,0.705,1.465,-2.625,0.549
0.565,0.364,0.706,1.953,-1.831,0.427
0.568,0.365,0.708,2.808,-0.854,0.366
0.573,0.367,0.713,2.563,-0.244,0.305

0.092,-0.149,-3.141,54.871,242.676,36.072
0.215,-0.160,-3.480,28.137,289.612,38.269
0.415,-0.039,-3.504,-35.889,343.323,44.983
0.747,0.197,-3.267,-121.216,402.893,51.208
1.044,0.491,-2.915,-197.815,464.722,56.030
1.293,0.739,-2.373,-251.587,521.179,56.824
1.518,1.033,-2.007,-291.321,568.054,57.556
1.724,1.246,-1.599,-331.482,600.708,58.228
1.925,1.340,-1.245,-363.770,627.625,57.068
2.143,1.358,-0.793,-385.925,652.161,52.551
2.442,1.437,-0.152,-398.254,667.542,46.570
2.620,1.501,0.582,-397.400,656.189,34.241
2.647,1.514,1.167,-382.690,630.920,14.038
2.730,1.473,1.766,-353.149,600.952,-2.869
2.616,1.504,2.264,-310.791,561.157,-12.268
2.389,1.469,2.521,-266.479,500.183,-21.423
2.242,1.518,2.640,-215.332,432.495,-27.039
2.209,1.287,2.259,-159.485,379.456,-23.987
2.263,1.225,2.104,-135.254,331.543,-15.259
2.307,1.064,2.035,-135.437,297.302,-9.094
2.368,1.019,2.091,-138.794,272.156,-13.123
2.319,1.094,2.692,-141.846,238.892,-19.409
2.560,1.092,2.497,-141.968,216.858,-20.691
2.314,0.993,2.759,-125.183,201.477,-24.353
2.220,1.095,2.787,-129.211,182.983,-29.968
1.984,1.121,2.779,-131.592,157.532,-28.625
1.786,1.014,2.703,-122.681,128.479,-22.766
1.658,0.883,2.585,-102.234,95.947,-20.081
1.476,0.773,2.421,-78.491,65.308,-22.888
1.273,0.781,2.189,-66.772,30.029,-27.100
1.067,0.722,1.861,-49.072,2.075,-30.762
0.862,0.651,1.820,-21.851,-21.790,-30.762
0.938,0.845,1.961,-9.033,-24.902,-29.419
0.632,0.699,1.199,-17.944,9.644,-37.842
0.457,0.793,1.370,-4.089,-5.981,-35.950
0.331,0.873,1.123,5.371,-9.888,-27.405
0.239,0.783,0.758,17.639,-7.080,-20.874
0.167,0.842,0.762,27.893,-8.667,-15.503
0.128,0.828,0.644,24.841,-2.747,-9.338
0.154,0.758,0.571,25.696,4.456,-1.953
0.218,0.725,0.578,20.569,8.606,5.737
0.290,0.670,0.602,11.597,14.404,12.512
0.411,0.628,0.628,1.526,19.897,17.395
0.453,0.550,0.636,-5.981,20.508,21.301
0.568,0.533,0.765,-12.512,20.996,22.705
0.650,0.526,0.899,-20.508,19.104,21.301
0.699,0.500,0.951,-22.949,15.137,16.846
0.701,0.516,0.984,-18.982,9.033,11.536
0.690,0.542,0.995,-11.169,3.479,6.042
0.665,0.560,0.994,-2.502,0.122,2.014
0.637,0.587,0.955,7.446,-1.831,0.854
0.616,0.577,0.904,15.564,-2.441,2.014
0.604,0.562,0.849,23.071,-3.052,3.662
0.595,0.521,0.780,30.701,-2.686,5.737
0.583,0.483,0.734,33.142,-2.502,7.751
0.578,0.457,0.692,32.471,-3.174,9.277
0.564,0.416,0.694,28.687,-5.127,10.376
0.574,0.414,0.654,23.437,-7.812,11.719
0.573,0.373,0.663,19.287,-7.996,11.414
0.569,0.357,0.700,15.320,-7.812,9.521
0.558,0.344,0.708,13.672,-6.775,8.484
0.534,0.354,0.719,11.780,-6.165,8.179
0.524,0.351,0.723,11.475,-5.432,8.118
0.524,0.345,0.767,12.756,-4.761,7.874
0.524,0.368,0.811,14.587,-6.470,6.470
0.534,0.384,0.823,18.677,-10.925,4.395
0.521,0.386,0.812,22.705,-15.625,2.625
0.502,0.381,0.784,25.085,-18.860,2.136
0.496,0.378,0.758,24.475,-21.301,2.502
0.490,0.386,0.737,22.461,-21.912,3.052
0.484,0.380,0.715,20.508,-20.569,4.028
0.489,0.370,0.698,19.470,-17.944,4.822
0.493,0.345,0.656,19.531,-14.099,4.883
0.480,0.351,0.690,19.348,-9.277,4.517
0.476,0.343,0.660,18.311,-4.578,3.967
0.482,0.329,0.669,17.761,-1.648,4.517
0.499,0.322,0.707,15.808,1.892,5.127
0.535,0.307,0.741,16.846,5.005,4.517
0.549,0.315,0.785,17.822,5.371,2.747
0.548,0.336,0.805,16.479,2.258,0.244
0.525,0.355,0.794,14.160,-1.892,-1.282
0.505,0.365,0.773,10.132,-6.287,-0.671
0.500,0.361,0.761,7.202,-10.010,0.549
0.500,0.352,0.741,7.141,-9.888,1.099
0.496,0.341,0.721,8.545,-6.775,0.916
0.498,0.339,0.731,9.766,-2.747,-0.366
0.489,0.339,0.693,8.972,0.000,-0.916
0.483,0.323,0.697,11.841,2.625,-0.732
0.487,0.336,0.709,14.038,6.958,-1.343
0.477,0.341,0.721,17.578,10.498,-1.770
0.481,0.340,0.722,17.151,10.864,-1.099
0.493,0.337,0.735,11.169,7.751,0.183
0.508,0.335,0.751,5.310,4.150,1.343
0.520,0.345,0.771,1.099,0.000,2.502
0.526,0.355,0.794,-1.099,-2.747,3.235
0.508,0.356,0.799,-1.648,-4.272,3.540
0.522,0.363,0.796,0.122,-5.798,3.235
0.504,0.383,0.787,2.380,-6.226,2.563
0.488,0.382,0.765,5.005,-4.883,2.136
0.480,0.376,0.754,7.629,-3.967,2.380
0.484,0.363,0.748,9.338,-2.563,3.174
0.489,0.347,0.748,8.850,-1.282,3.418
0.498,0.336,0.754,6.470,-0.366,3.479
0.505,0.336,0.771,3.784,0.183,2.869
0.505,0.335,0.779,1.526,0.122,1.526
0.510,0.341,0.783,-0.305,-1.404,0.305
0.512,0.345,0.800,-1.160,-2.869,-0.366
0.513,0.350,0.814,-0.061,-3.845,-1.282
0.500,0.363,0.813,2.563,-5.920,-2.014
0.490,0.368,0.798,4.517,-9.216,-2.014
0.484,0.359,0.776,5.493,-11.719,-1.404
0.481,0.347,0.752,5.737,-11.658,-0.671
0.477,0.339,0.742,5.066,-9.460,-0.122
0.478,0.336,0.751,3.723,-6.775,0.366
0.488,0.339,0.764,1.770,-4.272,0.732
0.497,0.335,0.777,0.671,-1.465,0.916
0.504,0.329,0.780,0.427,1.099,0.916
0.505,0.334,0.783,-0.183,2.258,0.427
0.506,0.342,0.789,-0.732,2.075,-0.122

-0.352,0.225,-2.426,44.739,82.397,36.438
-0.302,0.179,-2.869,46.509,124.390,44.312
-0.205,0.176,-3.204,25.757,181.702,52.124
0.020,0.244,-3.277,-20.569,253.113,62.561
0.293,0.372,-3.159,-80.750,328.613,74.463
0.627,0.530,-2.937,-133.057,407.471,83.740
0.885,0.589,-2.671,-173.401,482.056,90.942
1.169,0.665,-2.489,-200.195,545.471,97.473
1.425,0.675,-2.209,-222.534,599.670,104.553
1.656,0.673,-1.973,-246.826,647.217,110.229
1.881,0.646,-1.643,-272.827,690.918,110.352
2.286,0.611,-1.227,-298.889,724.609,107.666
2.783,0.620,-0.627,-334.473,741.333,98.999
3.070,0.642,0.259,-374.329,735.535,73.792
3.128,0.781,1.230,-398.315,690.247,40.222
2.990,0.991,1.918,-393.250,615.112,10.315
2.849,0.994,2.277,-349.792,549.744,-8.606
2.745,0.998,2.597,-299.744,491.272,-22.888
2.468,0.960,2.634,-260.254,411.682,-37.659
2.314,0.971,2.350,-234.192,324.768,-45.593
2.220,1.048,2.253,-229.492,254.944,-44.250
2.367,1.026,1.979,-233.887,217.712,-41.382
2.001,1.094,2.167,-231.873,197.266,-47.180
1.901,1.402,1.934,-232.300,191.467,-57.190
1.587,1.573,1.896,-222.290,201.172,-56.519
1.487,1.598,1.786,-210.083,200.317,-48.889
1.193,1.736,2.326,-178.223,172.852,-27.527
1.331,1.928,2.480,-147.888,174.622,-3.906
1.322,1.478,1.677,-193.909,239.380,-9.888
1.206,1.576,1.935,-175.415,204.773,-4.150
1.305,1.714,2.031,-151.855,183.777,3.601
1.277,1.651,2.135,-127.197,170.227,13.245
1.326,1.567,2.300,-74.158,158.936,17.334
1.239,1.310,2.210,-2.258,140.076,18.372
1.198,0.983,1.849,65.979,116.150,17.944
1.131,0.684,1.745,118.958,63.110,26.794
1.330,0.851,2.127,133.484,32.654,35.278
1.139,0.311,0.849,84.656,59.998,20.203
1.101,0.194,1.215,77.942,20.447,13.245
1.101,0.197,0.883,60.303,6.409,6.042
0.942,0.185,0.735,60.852,-2.502,-3.357
0.847,0.351,0.868,37.964,-33.875,-4.761
0.737,0.393,0.676,4.517,-38.452,-6.165
0.632,0.438,0.676,-12.634,-50.537,-6.592
0.544,0.546,0.678,-29.236,-60.791,-7.324
0.484,0.671,0.723,-39.856,-61.340,-7.263
0.424,0.752,0.738,-44.617,-51.208,-5.737
0.381,0.766,0.726,-38.940,-38.025,-4.028
0.379,0.753,0.753,-23.193,-28.442,-0.427
0.412,0.708,0.746,-7.263,-19.958,4.211
0.449,0.636,0.728,5.798,-13.184,7.263
0.499,0.567,0.707,14.343,-9.521,8.972
0.560,0.486,0.728,18.311,-9.521,9.338
0.618,0.447,0.810,18.005,-12.878,8.423
0.635,0.381,0.745,20.020,-15.442,6.348
0.677,0.328,0.741,26.550,-14.893,-0.671
0.607,0.359,0.700,24.353,-11.475,-6.409
0.547,0.428,0.733,14.404,-13.184,-6.836
0.551,0.486,0.783,1.221,-18.066,-4.211
0.562,0.504,0.798,-4.822,-20.386,-1.587
0.563,0.498,0.812,-1.404,-19.897,-0.427
0.550,0.488,0.787,7.568,-17.944,-0.183
0.528,0.486,0.783,12.939,-17.944,0.793
0.531,0.466,0.781,16.785,-20.081,2.625
0.532,0.442,0.776,19.958,-22.278,4.272
0.531,0.420,0.756,23.621,-25.635,4.761
0.525,0.391,0.754,26.123,-29.602,4.395
0.520,0.390,0.743,24.841,-31.433,3.235
0.507,0.380,0.725,20.691,-31.189,1.099
0.498,0.374,0.704,17.029,-28.931,-1.648
0.493,0.400,0.703,14.893,-24.597,-3.601
0.467,0.402,0.683,15.686,-18.677,-4.700
0.437,0.412,0.660,14.160,-15.808,-5.005
0.426,0.431,0.649,10.864,-15.930,-4.700
0.411,0.442,0.659,8.972,-14.343,-4.089
0.400,0.469,0.672,9.216,-11.108,-2.686
0.406,0.472,0.686,10.376,-10.071,0.244
0.426,0.460,0.699,12.268,-9.094,2.991
0.442,0.442,0.705,15.869,-6.165,4.333
0.460,0.428,0.713,20.569,-3.174,4.822
0.473,0.411,0.726,24.719,-0.427,4.456
0.495,0.406,0.718,28.015,1.831,3.906
0.504,0.397,0.732,30.151,2.747,3.601
0.484,0.378,0.697,25.024,1.709,2.808
0.495,0.372,0.703,18.066,-2.625,2.380
0.506,0.370,0.719,11.047,-4.089,1.892
0.503,0.362,0.741,5.981,-5.615,0.488
0.493,0.385,0.767,2.625,-10.254,-1.099
0.480,0.400,0.761,2.136,-13.611,-1.953
0.461,0.407,0.753,3.235,-14.526,-1.831
0.454,0.410,0.753,4.700,-13.672,-0.977
0.459,0.406,0.763,4.272,-12.817,0.488
0.467,0.397,0.772,3.296,-12.207,1.282
0.475,0.389,0.777,3.540,-11.536,1.526
0.480,0.376,0.776,5.188,-10.742,1.404
0.481,0.370,0.771,7.324,-9.949,0.916
0.473,0.378,0.760,8.362,-8.423,0.122
0.460,0.384,0.748,9.094,-7.263,-1.038
0.455,0.398,0.760,8.789,-6.592,-1.526
0.446,0.411,0.775,8.057,-7.141,-1.709
0.444,0.422,0.787,8.972,-7.446,-1.953
0.447,0.420,0.793,11.597,-7.812,-1.831
0.447,0.409,0.800,12.085,-9.277,-1.587
0.456,0.391,0.811,9.766,-12.512,-1.099
0.469,0.373,0.815,8.118,-15.137,-0.488
0.478,0.362,0.817,9.277,-15.076,-0.854
0.485,0.352,0.812,12.390,-13.184,-1.892
0.476,0.346,0.792,14.343,-10.803,-3.174
0.460,0.353,0.781,13.794,-9.766,-4.028
0.442,0.368,0.773,11.108,-9.949,-4.272
0.426,0.379,0.765,7.507,-10.071,-4.211
0.416,0.388,0.781,3.784,-10.132,-3.967
0.414,0.398,0.812,1.770,-10.193,-3.357
0.410,0.403,0.827,2.808,-10.803,-2.808
0.405,0.402,0.819,5.798,-11.169,-2.502
0.407,0.400,0.814,8.606,-11.047,-1.892
0.404,0.400,0.804,10.925,-10.803,-1.221
0.408,0.387,0.787,11.902,-10.864,-0.977
0.410,0.376,0.779,10.559,-11.780,-0.305

-0.513,-0.057,-2.080,0.061,174.500,26.001
-0.342,0.016,-2.204,-21.240,217.773,32.471
-0.184,0.072,-2.280,-47.363,265.198,36.438
0.020,0.128,-2.310,-74.463,315.857,37.903
0.211,0.208,-2.309,-102.417,366.882,37.659
0.424,0.274,-2.271,-125.488,414.307,36.255
0.617,0.332,-2.237,-143.677,458.862,34.973
0.819,0.364,-2.182,-161.987,498.901,32.715
0.978,0.374,-2.059,-178.284,533.997,30.273
1.122,0.420,-1.912,-196.167,564.331,28.992
1.345,0.487,-1.774,-218.689,586.975,29.236
1.504,0.588,-1.558,-247.681,602.051,28.870
1.620,0.621,-1.393,-266.785,614.746,28.809
1.744,0.613,-1.219,-283.997,623.535,24.780
1.960,0.696,-0.922,-307.068,632.141,18.616
2.320,0.862,-0.445,-328.735,642.029,10.681
2.626,1.080,0.324,-346.008,641.296,-3.235
2.857,1.419,1.123,-359.070,604.004,-18.799
3.223,1.739,1.679,-361.206,535.461,-24.109
3.374,1.875,2.127,-354.431,462.280,-17.029
3.239,1.985,2.352,-333.252,392.334,-15.137
3.143,2.081,2.280,-291.809,329.041,-18.250
2.987,2.167,2.124,-251.038,273.804,-15.564
2.833,2.025,1.965,-218.750,226.624,-11.658
2.702,1.984,1.767,-200.623,188.904,-8.728
2.416,1.998,1.860,-176.208,161.072,-5.310
2.343,2.289,2.686,-140.442,154.785,5.005
2.144,2.128,2.166,-144.470,198.242,10.132
2.249,1.801,2.485,-102.173,188.721,12.085
2.073,1.590,2.576,-44.678,156.738,31.860
1.952,1.096,2.223,14.954,137.329,35.950
1.939,0.691,2.060,66.345,116.943,30.151
1.841,0.453,1.832,96.680,89.966,18.982
1.698,0.382,1.398,100.647,66.040,6.104
1.445,0.292,1.446,91.797,19.958,-3.235
1.187,0.247,1.192,55.542,-49.500,-6.592
1.399,0.896,1.844,17.395,-94.299,-7.690
0.885,0.614,0.728,-60.242,-69.336,-28.503
0.663,0.920,1.249,-61.096,-101.624,-26.062
0.474,1.012,0.759,-31.982,-109.314,-12.268
0.339,1.011,0.891,-6.592,-118.530,-0.183
0.266,0.866,0.570,16.113,-100.952,6.409
0.189,0.764,0.484,38.025,-79.956,7.629
0.117,0.656,0.326,49.194,-56.213,7.935
0.137,0.624,0.338,47.119,-36.011,12.756
0.201,0.591,0.366,30.029,-13.672,18.799
0.289,0.530,0.406,10.620,7.324,22.644
0.378,0.480,0.494,-2.319,23.437,24.109
0.469,0.480,0.589,-8.850,31.860,24.353
0.601,0.501,0.698,-15.869,30.762,22.156
0.634,0.498,0.854,-21.667,21.057,15.137
0.676,0.481,0.986,-20.569,7.874,0.916
0.612,0.525,0.871,-13.367,-7.690,-10.559
0.563,0.630,0.856,-2.319,-27.161,-13.428
0.536,0.651,0.832,5.005,-39.001,-12.451
0.559,0.635,0.783,15.015,-43.213,-8.728
0.590,0.546,0.712,26.611,-40.222,-5.798
0.624,0.487,0.714,34.729,-34.912,-6.042
0.630,0.454,0.659,41.626,-28.259,-7.751
0.606,0.429,0.612,43.457,-24.597,-8.545
0.594,0.421,0.601,38.574,-22.949,-8.423
0.576,0.419,0.603,31.982,-21.973,-8.362
0.567,0.431,0.616,25.513,-21.118,-8.606
0.535,0.464,0.668,19.409,-22.766,-8.545
0.512,0.499,0.709,16.479,-25.940,-8.545
0.491,0.523,0.732,18.433,-29.419,-8.179
0.471,0.527,0.742,23.071,-30.762,-6.958
0.461,0.528,0.740,28.748,-29.236,-5.981
0.446,0.515,0.731,33.386,-25.024,-5.981
0.438,0.487,0.710,36.926,-20.630,-6.409
0.451,0.478,0.717,39.978,-16.479,-5.920
0.455,0.454,0.700,41.687,-13.123,-5.554
0.458,0.429,0.688,37.842,-12.939,-5.737
0.465,0.415,0.679,32.776,-15.015,-5.920
0.452,0.432,0.670,27.527,-15.991,-6.042
0.435,0.432,0.666,22.278,-16.418,-5.066
0.441,0.439,0.670,16.174,-17.334,-3.967
0.440,0.443,0.681,11.902,-17.456,-2.930
0.449,0.447,0.686,10.742,-15.564,-2.380
0.446,0.446,0.697,11.658,-12.024,-1.770
0.448,0.438,0.697,12.634,-8.728,-0.854
0.461,0.429,0.702,13.855,-5.615,0.000
0.474,0.418,0.710,15.259,-2.197,0.427
0.498,0.399,0.721,17.578,0.305,0.671
0.499,0.383,0.737,15.808,1.404,0.366
0.504,0.379,0.766,12.634,1.404,-0.427
0.501,0.385,0.787,9.521,-0.061,-1.526
0.495,0.403,0.812,6.104,-3.296,-2.197
0.489,0.408,0.819,3.113,-6.775,-2.563
0.480,0.419,0.828,2.625,-10.620,-2.625
0.470,0.424,0.819,2.991,-12.268,-2.686
0.463,0.432,0.816,4.639,-13.245,-2.319
0.459,0.424,0.789,6.409,-13.977,-1.770
0.454,0.423,0.776,6.897,-14.343,-1.221
0.458,0.410,0.765,7.263,-12.878,-1.038
0.464,0.394,0.761,7.385,-9.949,-0.793
0.470,0.378,0.769,6.470,-7.080,-0.916
0.474,0.373,0.778,4.578,-5.188,-1.526
0.479,0.374,0.794,3.784,-4.211,-2.441
0.474,0.376,0.793,3.235,-3.601,-3.418
0.463,0.380,0.792,3.113,-3.662,-3.906
0.454,0.393,0.787,2.625,-4.211,-3.967
0.455,0.399,0.781,1.770,-5.127,-4.150
0.455,0.401,0.783,1.343,-5.310,-4.089
0.452,0.405,0.797,1.526,-5.127,-4.211
0.448,0.422,0.809,2.991,-5.798,-4.456
0.435,0.436,0.802,5.188,-7.263,-4.456
0.429,0.436,0.784,7.141,-8.911,-4.028
0.423,0.432,0.758,8.240,-9.399,-2.991
0.426,0.418,0.745,7.629,-7.996,-1.282
0.434,0.402,0.749,5.310,-7.080,-0.061
0.442,0.393,0.752,3.174,-6.836,0.610
0.443,0.379,0.746,2.319,-6.348,0.793
0.440,0.369,0.736,1.526,-5.005,0.671
0.443,0.369,0.741,-0.183,-3.418,0.427
0.449,0.368,0.755,-2.441,-2.075,0.183
0.450,0.379,0.769,-4.028,-1.160,-0.305
0.450,0.396,0.782,-4.456,0.244,-1.038
0.452,0.415,0.801,-4.211,1.953,-1.282

-0.159,0.196,-2.614,35.522,201.904,15.381
-0.070,0.217,-2.921,32.593,248.474,22.766
0.115,0.293,-3.056,5.798,307.129,35.461
0.355,0.414,-2.993,-41.687,370.239,49.072
0.591,0.510,-2.783,-96.008,432.190,61.768
0.865,0.631,-2.526,-145.020,488.403,71.533
1.109,0.682,-2.256,-187.012,535.461,78.918
1.284,0.637,-1.865,-221.497,575.256,83.923
1.523,0.742,-1.712,-246.765,610.168,87.463
1.693,0.693,-1.305,-280.396,639.160,84.229
1.905,0.678,-0.833,-309.753,666.382,81.970
2.175,0.782,-0.366,-327.820,686.890,73.425
2.336,0.873,0.202,-347.717,692.688,51.941
2.311,1.046,0.826,-354.553,680.237,33.936
2.247,1.362,1.067,-350.708,637.085,26.062
2.454,1.577,1.589,-359.436,562.561,24.719
3.117,1.751,2.335,-362.000,489.075,26.367
3.544,1.935,3.330,-346.497,407.837,16.479
3.493,1.886,3.484,-278.015,332.642,0.122
3.301,1.867,3.220,-197.449,269.043,-7.690
2.993,1.750,2.873,-143.799,231.506,-2.808
2.858,1.499,2.787,-126.526,216.248,5.676
2.612,1.301,2.759,-120.728,202.576,15.991
2.535,1.012,2.866,-123.657,184.204,20.203
2.412,1.027,2.641,-137.756,147.705,19.653
2.168,0.865,2.405,-120.239,109.802,20.386
1.768,0.353,1.959,-73.608,56.396,28.320
2.045,1.608,3.737,-15.259,8.850,47.363
1.532,0.557,1.544,-138.428,98.450,-5.188
1.231,0.784,2.192,-113.098,42.175,-23.071
1.024,0.926,1.772,-65.796,8.240,-26.062
0.781,0.800,1.341,-9.399,-5.554,-33.997
0.584,0.719,0.902,32.104,-10.864,-41.809
0.425,0.743,0.605,56.885,-9.949,-43.579
0.335,0.785,0.449,59.265,0.671,-34.119
0.292,0.772,0.439,42.969,13.916,-15.991
0.350,0.742,0.536,14.954,16.357,4.944
0.403,0.699,0.673,-15.869,5.310,23.499
0.502,0.575,0.728,-34.241,-9.888,34.729
0.629,0.443,0.831,-41.321,-22.766,40.710
0.846,0.605,1.485,-44.373,-24.536,40.466
0.875,0.393,0.930,-50.049,-0.610,24.536
0.838,0.441,1.304,-33.081,-16.174,11.169
0.795,0.534,1.144,-11.841,-33.142,3.662
0.715,0.579,1.007,12.085,-48.035,-2.014
0.618,0.579,0.826,28.259,-60.242,-5.005
0.552,0.564,0.658,40.161,-65.430,-6.104
0.473,0.526,0.522,48.157,-62.622,-6.409
0.409,0.468,0.443,50.781,-53.162,-5.676
0.384,0.411,0.419,49.500,-40.833,-1.770
0.383,0.340,0.464,41.138,-30.029,4.700
0.433,0.335,0.555,29.053,-22.766,10.559
0.521,0.340,0.697,18.127,-15.808,13.000
0.564,0.340,0.759,10.437,-8.972,11.658
0.610,0.327,0.856,10.193,-7.874,8.179
0.614,0.338,0.898,17.212,-11.841,4.089
0.590,0.346,0.846,30.945,-16.357,-0.549
0.542,0.352,0.777,42.664,-20.386,-3.906
0.498,0.390,0.709,49.622,-22.034,-4.517
0.453,0.403,0.671,49.744,-23.193,-3.235
0.450,0.401,0.608,40.710,-24.597,-0.488
0.440,0.361,0.599,29.846,-23.560,1.099
0.439,0.348,0.626,19.043,-23.376,1.648
0.437,0.362,0.652,10.132,-22.644,1.404
0.421,0.380,0.675,4.150,-20.996,1.648
0.421,0.371,0.688,2.869,-18.433,1.648
0.434,0.389,0.729,4.517,-14.343,1.465
0.434,0.413,0.755,5.798,-8.972,0.793
0.429,0.396,0.754,10.803,-5.310,-0.610
0.419,0.398,0.758,16.418,-3.296,-1.038
0.427,0.390,0.750,20.447,-0.549,-1.099
0.441,0.377,0.762,24.597,0.977,-0.671
0.459,0.377,0.769,26.245,-0.183,0.122
0.465,0.358,0.760,23.743,-2.441,0.000
0.455,0.355,0.773,19.287,-3.906,0.061
0.478,0.359,0.792,12.207,-5.493,1.282
0.483,0.353,0.822,4.089,-7.935,2.747
0.490,0.338,0.823,0.977,-8.850,3.174
0.481,0.332,0.839,2.625,-8.240,2.441
0.469,0.313,0.926,4.272,-6.531,0.977
0.484,0.336,0.850,6.042,-4.089,-0.244
0.474,0.332,0.837,9.460,-3.174,-1.892
0.437,0.344,0.862,13.000,-4.089,-3.235
0.435,0.359,0.811,14.099,-2.136,-4.150
0.434,0.341,0.838,15.625,0.122,-4.028
0.434,0.360,0.852,14.709,0.488,-3.967
0.432,0.362,0.849,13.000,-0.305,-3.845
0.439,0.349,0.838,12.939,-1.343,-3.113
0.456,0.330,0.833,13.855,-1.526,-2.441
0.458,0.318,0.833,13.245,-2.197,-2.136
0.461,0.313,0.831,10.193,-5.005,-1.831
0.463,0.291,0.817,6.104,-9.094,-1.648
0.461,0.287,0.809,3.174,-12.207,-2.014
0.449,0.288,0.814,0.977,-12.695,-2.625
0.439,0.306,0.824,-1.465,-12.756,-3.235
0.431,0.320,0.829,-2.930,-12.512,-3.845
0.422,0.334,0.827,-2.136,-11.597,-3.967
0.417,0.341,0.822,-1.038,-10.193,-3.601
0.401,0.349,0.819,0.061,-8.545,-2.930
0.406,0.368,0.811,1.404,-6.836,-1.831
0.405,0.381,0.825,2.502,-5.310,-0.244
0.400,0.386,0.828,4.639,-4.822,0.916
0.399,0.376,0.827,5.493,-4.883,2.136
0.414,0.375,0.837,4.822,-5.432,3.357
0.416,0.367,0.831,6.165,-5.127,3.601
0.427,0.345,0.828,7.751,-3.906,3.174
0.448,0.338,0.839,7.568,-3.357,2.319
0.443,0.341,0.853,7.019,-4.089,0.671
0.434,0.346,0.836,7.202,-5.066,-1.343
0.424,0.351,0.822,6.470,-5.981,-2.502
0.419,0.351,0.807,4.333,-6.836,-2.380
0.422,0.347,0.802,1.099,-7.446,-1.404
0.425,0.346,0.805,-0.610,-7.507,-0.732
0.428,0.344,0.806,-0.854,-7.019,-0.488
0.432,0.334,0.801,-0.366,-6.409,-0.305
0.430,0.329,0.796,0.671,-5.249,-0.305
0.429,0.334,0.793,2.197,-4.272,-0.305
0.431,0.334,0.792,3.601,-3.845,-0.183
0.433,0.331,0.796,2.991,-4.089,0.061

0.444,0.105,-2.572,-26.733,338.684,11.963
0.670,0.238,-2.686,-52.551,382.935,12.695
0.871,0.379,-2.798,-84.229,426.147,12.024
1.022,0.476,-2.774,-122.864,470.947,11.292
1.188,0.606,-2.784,-164.124,516.968,14.221
1.390,0.663,-2.623,-210.937,572.083,17.456
1.679,0.759,-2.277,-249.939,640.320,23.987
2.066,0.912,-1.838,-281.555,709.778,30.334
2.375,1.009,-1.360,-311.218,765.686,33.691
2.847,1.154,-0.808,-350.769,790.588,39.734
3.201,1.458,-0.021,-420.288,774.536,41.992
3.554,1.743,1.037,-485.168,723.999,29.419
3.477,1.877,2.237,-514.526,634.460,-4.395
3.095,2.115,3.025,-492.981,511.353,-41.870
3.044,2.133,3.171,-403.137,400.574,-62.927
2.793,2.062,2.674,-299.438,331.970,-73.059
2.782,1.830,2.225,-233.459,288.452,-66.833
2.794,1.846,2.162,-218.201,260.864,-67.078
2.723,2.119,2.229,-238.831,252.258,-64.758
2.475,2.308,2.642,-255.676,246.948,-56.824
2.338,2.315,2.944,-245.117,236.877,-49.744
2.170,2.162,3.050,-181.946,223.633,-46.570
1.912,2.271,3.057,-107.361,201.660,-45.837
1.688,2.111,3.001,-38.330,180.786,-21.484
1.428,1.401,2.964,46.509,143.921,21.118
1.560,1.202,3.110,130.676,87.036,58.167
1.782,0.569,1.509,126.038,104.370,54.749
1.321,0.259,1.807,98.511,102.234,28.503
1.323,0.220,1.386,113.708,47.791,35.339
1.208,0.202,1.182,107.666,27.039,34.058
1.121,0.294,1.356,82.947,10.803,28.381
1.018,0.154,0.518,66.345,-3.052,12.695
0.793,0.422,1.008,29.053,-50.842,1.221
0.723,0.577,0.894,-7.080,-60.303,-0.488
0.652,0.723,1.006,-35.522,-62.073,1.221
0.510,0.829,1.047,-57.495,-58.838,-0.366
0.440,0.852,0.951,-51.270,-56.946,-0.305
0.352,0.853,0.941,-23.437,-56.152,2.441
0.340,0.826,0.831,7.568,-58.228,7.874
0.344,0.716,0.690,28.564,-51.697,12.756
0.349,0.599,0.598,44.556,-42.847,16.418
0.404,0.479,0.518,51.880,-34.058,19.531
0.489,0.408,0.527,47.729,-23.621,21.729
0.556,0.357,0.582,33.264,-12.939,20.386
0.599,0.334,0.632,18.616,-6.287,15.442
0.605,0.367,0.697,8.728,-5.188,8.728
0.706,0.427,0.912,2.136,-8.484,2.075
0.640,0.437,0.840,0.061,-11.841,-4.456
0.647,0.551,0.912,11.108,-18.311,-5.249
0.615,0.545,0.813,19.226,-20.813,-5.615
0.585,0.536,0.856,25.269,-30.396,-5.127
0.574,0.487,0.782,32.715,-39.734,-3.052
0.547,0.452,0.731,40.222,-47.119,0.549
0.522,0.420,0.667,43.396,-49.744,3.784
0.513,0.376,0.618,45.776,-44.922,5.188
0.522,0.341,0.603,45.044,-34.607,4.639
0.529,0.306,0.589,42.480,-22.949,2.625
0.524,0.296,0.629,36.011,-16.052,-0.061
0.516,0.314,0.680,23.315,-13.367,-2.991
0.510,0.350,0.742,11.292,-13.367,-5.371
0.487,0.402,0.791,2.686,-17.090,-6.958
0.456,0.439,0.830,-2.808,-24.536,-6.104
0.430,0.458,0.835,-3.845,-31.616,-4.639
0.414,0.451,0.802,-0.305,-34.790,-4.028
0.391,0.451,0.782,6.714,-32.349,-3.174
0.405,0.407,0.739,16.602,-27.100,-1.770
0.417,0.378,0.716,23.804,-20.447,-0.671
0.424,0.343,0.709,26.367,-11.963,-1.953
0.464,0.310,0.681,25.818,-4.761,-3.052
0.474,0.284,0.702,24.414,-0.061,-4.089
0.495,0.288,0.719,19.775,1.953,-5.615
0.493,0.310,0.742,13.550,0.671,-7.507
0.478,0.338,0.773,8.789,-2.441,-8.423
0.470,0.365,0.801,2.502,-8.850,-6.958
0.466,0.385,0.816,-2.502,-17.761,-4.822
0.452,0.407,0.821,-4.395,-24.963,-4.395
0.421,0.417,0.814,-3.479,-27.588,-4.028
0.412,0.426,0.813,-0.061,-27.100,-3.113
0.416,0.414,0.824,5.737,-24.597,-1.343
0.420,0.397,0.819,13.428,-20.325,0.610
0.426,0.372,0.807,20.630,-15.198,1.831
0.434,0.342,0.798,24.780,-11.169,2.686
0.448,0.328,0.804,23.254,-8.789,3.296
0.447,0.318,0.802,20.569,-7.080,3.296
0.443,0.311,0.800,16.968,-6.226,2.197
0.431,0.319,0.797,13.428,-6.226,0.610
0.423,0.324,0.787,11.414,-6.287,-0.244
0.415,0.323,0.783,9.460,-6.287,-0.549
0.412,0.334,0.800,7.507,-5.493,-0.854
0.411,0.357,0.840,6.897,-5.249,-1.099
0.408,0.368,0.859,6.531,-7.019,-1.221
0.416,0.371,0.873,6.897,-10.193,-1.038
0.421,0.375,0.883,8.606,-12.695,-1.160
0.416,0.370,0.871,11.536,-14.465,-1.526
0.409,0.361,0.839,12.817,-16.418,-1.526
0.406,0.351,0.818,12.329,-18.188,-1.038
0.408,0.336,0.791,12.390,-18.433,-0.977
0.404,0.323,0.775,12.207,-17.212,-1.526
0.395,0.318,0.770,11.414,-16.235,-2.258
0.387,0.337,0.762,9.521,-15.869,-2.625
0.370,0.342,0.751,6.409,-14.954,-2.747
0.360,0.354,0.761,2.258,-13.794,-1.892
0.369,0.360,0.777,0.183,-11.658,-0.732
0.380,0.361,0.813,0.549,-8.972,0.000
0.389,0.364,0.835,2.808,-7.324,0.000
0.389,0.362,0.843,6.592,-7.690,0.000
0.384,0.348,0.830,10.681,-9.033,0.366
0.379,0.329,0.798,13.428,-10.681,1.221
0.378,0.309,0.777,13.428,-10.315,2.136
0.378,0.292,0.776,11.230,-8.240,2.930
0.380,0.295,0.796,7.996,-5.676,3.113
0.379,0.293,0.814,5.005,-4.211,2.747
0.378,0.298,0.829,0.854,-4.028,2.380
0.384,0.294,0.847,-1.404,-3.662,2.319
0.401,0.293,0.871,-1.099,-3.174,2.136
0.418,0.304,0.906,0.610,-3.784,1.404
0.418,0.312,0.908,3.296,-6.287,-0.366
0.398,0.314,0.885,5.127,-9.644,-1.770
0.383,0.322,0.858,5.798,-12.939,-1.770

