aX,aY,aZ,gX,gY,gZ
0.653,1.253,-1.096,-36.926,9.155,39.063
0.631,1.446,-1.264,-34.058,2.563,22.278
0.604,1.555,-1.402,-27.649,-8.545,2.136
0.575,1.629,-1.451,-28.870,-25.696,-17.517
0.570,1.649,-1.409,-39.734,-45.715,-35.889
0.554,1.597,-1.289,-55.664,-65.308,-52.917
0.526,1.556,-1.108,-73.730,-84.717,-67.810
0.532,1.537,-0.917,-86.304,-104.309,-82.458
0.512,1.483,-0.706,-89.233,-121.521,-99.243
0.515,1.375,-0.463,-90.759,-133.667,-117.554
0.545,1.203,-0.209,-95.764,-142.456,-139.343
0.564,0.926,0.068,-97.229,-150.452,-166.138
0.595,0.537,0.420,-88.989,-160.767,-198.486
0.573,0.010,0.841,-68.726,-168.701,-235.901
0.503,-0.631,1.272,-32.288,-169.373,-272.461
0.442,-1.221,1.638,14.893,-163.147,-297.241
0.371,-1.797,1.803,62.378,-146.912,-301.392
0.331,-2.195,1.729,85.510,-116.882,-276.550
0.288,-2.410,1.456,64.758,-72.449,-218.750
0.286,-2.285,1.020,0.732,-25.269,-136.841
0.352,-1.933,0.692,-82.825,14.954,-51.270
0.587,-1.485,0.504,-153.503,42.236,12.817
0.863,-1.127,0.516,-190.491,49.683,35.583
0.960,-1.053,0.656,-164.368,34.302,12.146
0.891,-1.205,0.889,-74.829,6.897,-41.260
0.785,-1.548,1.082,30.640,-17.456,-99.243
0.640,-1.942,1.081,104.492,-26.794,-137.085
0.447,-2.349,0.943,139.954,-20.203,-144.226
0.318,-2.594,0.731,134.949,-6.226,-115.723
0.277,-2.638,0.480,103.088,9.644,-60.303
0.364,-2.484,0.276,62.317,24.109,3.784
0.454,-2.224,0.162,31.006,30.701,57.190
0.531,-1.962,0.191,25.146,25.146,91.553
0.596,-1.720,0.322,39.917,14.771,106.873
0.652,-1.534,0.504,70.801,5.066,106.812
0.681,-1.456,0.667,110.596,-2.258,97.351
0.656,-1.440,0.753,150.085,-6.287,88.867
0.607,-1.416,0.749,179.443,-8.240,90.454
0.566,-1.320,0.694,190.247,-7.568,107.056
0.534,-1.138,0.633,183.472,-4.272,135.254
0.486,-0.857,0.618,171.326,-3.113,170.776
0.497,-0.406,0.641,162.781,-6.653,208.374
0.557,0.068,0.653,160.034,-12.939,239.380
0.564,0.573,0.679,158.386,-15.808,258.301
0.612,1.066,0.762,153.381,-14.221,268.555
0.700,1.545,0.772,138.733,-4.272,268.494
0.780,1.904,0.585,122.498,18.005,254.456
0.855,2.136,0.259,111.450,45.471,227.112
0.816,2.151,-0.090,100.098,66.650,191.101
0.742,2.034,-0.351,78.308,78.674,156.799
0.715,1.828,-0.489,50.720,86.548,129.639
0.650,1.576,-0.588,40.344,83.984,106.750
0.594,1.406,-0.674,47.607,73.242,90.454
0.641,1.413,-0.700,49.805,63.110,82.336
0.709,1.475,-0.785,48.401,52.307,72.144
0.752,1.464,-0.839,51.453,42.053,55.603
0.790,1.432,-0.870,46.875,34.973,38.635
0.854,1.356,-0.874,33.203,30.823,21.179
0.882,1.199,-0.836,18.494,26.123,1.831
0.897,1.014,-0.781,7.874,17.883,-16.174
0.937,0.837,-0.713,2.319,7.446,-31.128
0.976,0.651,-0.603,0.183,-2.930,-42.603
0.976,0.442,-0.475,-1.709,-11.841,-50.659
0.948,0.275,-0.376,-7.141,-15.503,-52.185
0.927,0.162,-0.302,-15.198,-16.235,-45.776
0.944,0.112,-0.224,-23.254,-17.029,-35.095
0.976,0.075,-0.151,-28.625,-14.709,-24.048
1.014,0.070,-0.069,-30.640,-10.864,-16.052
1.038,0.063,-0.008,-27.039,-7.812,-12.268
1.070,0.062,0.040,-20.325,-5.127,-11.719
1.051,0.043,0.055,-13.306,-4.028,-12.451
1.047,0.020,0.080,-8.240,-2.869,-13.306
1.042,0.010,0.043,-7.080,-0.732,-12.634
1.020,-0.009,-0.016,-9.277,1.831,-11.902
1.004,-0.032,-0.070,-10.620,4.089,-11.230
0.990,-0.036,-0.117,-8.728,3.601,-10.742
0.979,-0.029,-0.144,-4.700,1.770,-10.925
0.974,-0.019,-0.163,-1.770,0.000,-10.620
0.976,-0.006,-0.177,-1.831,-1.953,-9.827
0.973,0.015,-0.170,-3.906,-4.089,-9.460
0.983,0.034,-0.132,-4.822,-6.104,-9.888
1.004,0.032,-0.085,-4.395,-6.592,-10.315
1.026,0.036,-0.053,-3.296,-6.104,-12.573
1.032,0.027,-0.037,-0.183,-5.859,-16.113
1.026,-0.001,-0.034,3.845,-6.226,-19.165
1.015,-0.030,-0.046,6.470,-5.920,-20.752
1.010,-0.062,-0.062,6.287,-4.456,-19.897
0.984,-0.089,-0.091,3.662,-2.258,-16.296
0.968,-0.059,-0.149,-1.038,-0.244,-10.254
0.949,0.003,-0.204,-6.226,0.793,-2.869
0.944,0.053,-0.237,-11.841,-0.061,2.869
0.959,0.104,-0.249,-14.893,-1.831,5.249
0.971,0.120,-0.202,-12.451,-3.662,4.822
0.970,0.132,-0.170,-6.470,-8.301,1.526
0.963,0.149,-0.132,-1.465,-10.620,-1.526
0.953,0.142,-0.118,1.099,-9.888,-3.296
0.936,0.132,-0.132,-0.793,-7.629,-3.601
0.938,0.129,-0.149,-3.906,-4.517,-2.747
0.957,0.110,-0.165,-5.859,-2.502,-1.892
0.971,0.081,-0.173,-8.972,-1.465,-0.671
0.977,0.087,-0.175,-13.428,-0.183,0.488
0.988,0.089,-0.163,-14.587,-0.488,1.221
1.002,0.084,-0.138,-12.329,-1.587,1.099
1.011,0.063,-0.113,-9.094,-3.296,0.061
1.014,0.040,-0.088,-6.042,-4.028,-1.038
1.009,0.019,-0.080,-3.967,-3.418,-0.916
1.005,0.012,-0.084,-2.625,-2.808,0.183
1.000,0.025,-0.106,-2.625,-2.075,2.319
0.998,0.047,-0.131,-3.418,-1.221,5.127
1.004,0.072,-0.144,-4.028,-0.549,7.019
1.007,0.074,-0.146,-4.333,-0.549,7.263
1.006,0.089,-0.135,-4.395,-0.732,6.836
1.015,0.089,-0.124,-4.211,-1.343,5.676
1.009,0.083,-0.116,-3.601,-1.587,3.784
1.007,0.078,-0.111,-2.441,-1.343,2.441
1.005,0.073,-0.120,-0.366,-0.488,1.160
1.000,0.066,-0.131,0.671,0.671,0.366
0.989,0.068,-0.159,-1.404,1.160,1.099
0.988,0.089,-0.176,-4.395,1.343,2.441

0.750,1.571,-0.738,-4.944,15.137,30.823
0.719,1.814,-0.892,-29.663,15.686,29.297
0.676,2.070,-1.051,-66.528,14.771,24.292
0.645,2.265,-1.167,-103.699,8.972,10.742
0.603,2.329,-1.189,-131.592,-5.127,-13.123
0.551,2.293,-1.067,-150.208,-29.968,-45.410
0.487,2.153,-0.845,-156.494,-61.279,-82.153
0.423,1.966,-0.549,-153.992,-92.224,-119.507
0.412,1.691,-0.193,-152.161,-115.845,-155.029
0.428,1.299,0.146,-155.334,-130.432,-192.993
0.388,0.760,0.544,-156.494,-139.038,-232.056
0.309,0.113,0.958,-142.456,-144.531,-266.113
0.249,-0.535,1.301,-115.906,-142.517,-289.307
0.196,-1.105,1.499,-77.576,-134.521,-296.875
0.196,-1.652,1.597,-39.185,-119.629,-286.011
0.255,-2.087,1.570,-28.870,-88.928,-259.338
0.299,-2.378,1.384,-43.091,-46.631,-219.238
0.345,-2.452,1.140,-65.613,-8.179,-166.870
0.370,-2.337,0.829,-93.018,14.038,-109.436
0.449,-2.074,0.593,-116.699,27.771,-56.824
0.526,-1.705,0.399,-131.165,29.968,-14.038
0.714,-1.323,0.338,-137.939,25.146,12.390
0.912,-1.123,0.413,-133.606,14.893,12.268
0.922,-1.259,0.573,-95.703,0.183,-18.799
0.831,-1.576,0.755,-22.583,-13.062,-67.566
0.719,-1.953,0.833,52.612,-24.170,-105.408
0.561,-2.350,0.753,108.032,-26.001,-119.812
0.435,-2.602,0.613,127.380,-17.151,-101.501
0.378,-2.643,0.417,113.770,-5.554,-53.528
0.442,-2.463,0.271,77.393,7.019,8.179
0.577,-2.174,0.174,32.043,16.602,68.115
0.636,-1.883,0.176,0.610,22.156,111.023
0.726,-1.614,0.279,-6.348,22.949,132.996
0.771,-1.419,0.390,12.817,21.423,136.963
0.786,-1.278,0.491,53.162,17.273,128.906
0.788,-1.190,0.557,94.666,11.536,118.713
0.776,-1.131,0.597,122.742,9.277,113.831
0.737,-1.064,0.590,135.925,10.315,117.065
0.679,-0.982,0.546,139.526,14.343,127.502
0.620,-0.848,0.497,138.855,19.043,144.836
0.590,-0.661,0.446,134.216,23.682,165.100
0.545,-0.438,0.395,126.709,25.879,186.157
0.488,-0.183,0.417,116.699,25.940,207.581
0.532,0.160,0.476,103.699,27.954,226.562
0.560,0.449,0.497,101.135,31.067,235.596
0.541,0.692,0.501,107.971,35.461,234.070
0.534,0.957,0.439,110.168,44.373,228.638
0.471,1.179,0.306,107.239,56.335,220.642
0.501,1.422,0.151,102.905,69.885,208.679
0.494,1.575,-0.108,99.854,80.750,191.467
0.422,1.621,-0.370,96.558,86.060,172.302
0.415,1.682,-0.587,77.698,86.060,160.400
0.432,1.692,-0.762,46.265,81.604,153.625
0.463,1.706,-0.851,14.404,74.829,145.996
0.547,1.768,-0.885,-7.751,65.430,133.545
0.636,1.797,-0.891,-6.165,49.622,110.107
0.733,1.775,-0.841,10.925,33.142,78.003
0.804,1.655,-0.757,30.945,17.944,41.260
0.863,1.463,-0.657,43.030,8.484,8.240
0.913,1.237,-0.575,47.180,2.563,-17.517
0.959,1.013,-0.499,48.096,-1.221,-35.950
1.000,0.795,-0.426,44.495,-2.075,-46.326
1.005,0.613,-0.375,36.743,-2.502,-50.537
1.002,0.475,-0.340,29.785,-3.418,-49.500
0.994,0.383,-0.305,25.269,-4.456,-43.945
1.000,0.330,-0.271,20.447,-6.042,-35.889
1.013,0.302,-0.198,13.489,-5.310,-28.137
1.003,0.281,-0.135,9.827,-2.991,-21.729
1.004,0.276,-0.077,10.315,-1.404,-16.846
0.993,0.294,-0.045,10.376,1.404,-14.648
0.981,0.307,-0.041,7.324,6.958,-12.085
0.958,0.324,-0.078,0.366,14.465,-10.254
0.923,0.351,-0.167,-4.395,20.996,-10.437
0.878,0.351,-0.270,-5.310,23.499,-11.292
0.859,0.376,-0.347,-8.301,21.484,-11.475
0.871,0.385,-0.423,-12.329,15.381,-12.085
0.898,0.360,-0.404,-12.878,5.432,-14.709
0.926,0.304,-0.330,-8.057,-4.028,-20.630
0.941,0.225,-0.211,0.061,-13.367,-27.527
0.953,0.139,-0.095,9.399,-18.860,-33.142
0.965,0.073,-0.019,16.846,-19.531,-36.072
0.969,0.013,0.002,19.165,-15.015,-36.011
0.962,-0.020,-0.022,14.282,-7.324,-31.494
0.953,-0.015,-0.097,5.188,-0.427,-24.231
0.937,0.013,-0.191,-1.831,3.723,-16.113
0.921,0.060,-0.275,-8.179,3.723,-7.935
0.927,0.126,-0.324,-16.235,0.671,-0.793
0.960,0.177,-0.311,-23.315,-3.174,3.906
0.977,0.193,-0.254,-23.621,-8.545,3.845
0.988,0.197,-0.177,-16.235,-14.709,-0.122
1.002,0.186,-0.091,-5.188,-19.043,-4.639
1.001,0.152,-0.022,4.944,-19.592,-10.559
0.998,0.115,0.010,10.254,-15.381,-14.893
0.987,0.081,-0.001,11.597,-9.521,-16.174
0.973,0.058,-0.064,10.742,-3.113,-14.771
0.957,0.051,-0.144,7.690,1.099,-11.230
0.952,0.072,-0.207,3.235,2.319,-6.104
0.958,0.100,-0.233,-0.916,1.465,-1.343
0.960,0.137,-0.229,-3.784,-0.854,2.502
0.962,0.170,-0.206,-4.944,-2.747,5.371
0.970,0.200,-0.183,-4.639,-3.967,6.775
0.969,0.224,-0.162,-2.808,-4.456,6.104
0.973,0.243,-0.146,0.366,-4.333,4.395
0.978,0.251,-0.144,3.296,-3.357,1.526
0.977,0.237,-0.151,5.127,-2.075,-1.465
0.968,0.208,-0.171,5.554,-0.732,-3.174
0.965,0.192,-0.199,4.211,0.549,-2.991
0.959,0.187,-0.224,2.197,0.549,-2.075
0.961,0.187,-0.235,-0.122,0.183,-0.610
0.960,0.190,-0.233,-2.258,-0.793,1.160
0.960,0.211,-0.230,-3.906,-2.014,2.625
0.964,0.224,-0.224,-4.822,-2.991,3.479
0.975,0.231,-0.206,-5.188,-3.601,3.296
0.983,0.231,-0.176,-3.601,-4.578,1.404
0.986,0.217,-0.151,0.671,-5.066,-1.465
0.987,0.200,-0.143,3.479,-4.333,-3.418
0.981,0.183,-0.155,2.930,-3.235,-4.456
0.977,0.172,-0.167,1.526,-2.686,-4.272
0.980,0.168,-0.170,0.488,-2.502,-2.991

0.852,1.339,-0.286,-68.542,-50.049,-21.301
0.880,1.352,-0.148,-61.646,-56.152,-41.382
0.891,1.342,-0.022,-59.387,-58.105,-60.547
0.884,1.302,0.073,-62.500,-57.434,-77.087
0.887,1.240,0.142,-72.693,-55.298,-88.928
0.903,1.169,0.214,-87.341,-52.063,-97.595
0.900,1.087,0.300,-101.135,-48.950,-106.323
0.888,0.987,0.379,-111.084,-45.654,-115.540
0.870,0.853,0.447,-117.676,-42.175,-126.221
0.833,0.704,0.526,-121.460,-38.879,-138.672
0.783,0.534,0.591,-118.530,-35.339,-151.672
0.733,0.327,0.634,-109.192,-31.555,-164.612
0.678,0.115,0.652,-103.577,-26.550,-175.720
0.634,-0.116,0.670,-100.952,-19.775,-181.885
0.571,-0.323,0.658,-97.534,-14.465,-184.265
0.533,-0.500,0.618,-94.055,-10.986,-182.922
0.508,-0.682,0.594,-92.224,-6.287,-176.270
0.528,-0.862,0.604,-96.313,-1.587,-164.673
0.562,-1.033,0.612,-107.483,4.700,-151.733
0.547,-1.235,0.618,-111.389,8.789,-140.930
0.562,-1.416,0.640,-98.145,8.911,-132.446
0.581,-1.597,0.638,-74.341,7.080,-124.817
0.571,-1.721,0.592,-49.072,5.798,-115.845
0.570,-1.818,0.521,-29.907,6.653,-104.065
0.589,-1.890,0.430,-23.254,8.118,-89.600
0.596,-1.963,0.385,-20.813,10.010,-74.585
0.601,-2.040,0.385,-11.292,9.521,-61.768
0.603,-2.131,0.405,2.014,8.484,-50.171
0.600,-2.267,0.439,19.531,6.592,-38.330
0.619,-2.377,0.450,40.405,1.953,-26.306
0.588,-2.408,0.433,60.364,-1.099,-13.000
0.552,-2.413,0.392,75.867,0.305,5.920
0.535,-2.336,0.333,81.665,4.883,30.945
0.530,-2.161,0.256,79.407,9.644,57.861
0.530,-1.977,0.196,78.369,12.146,82.031
0.540,-1.792,0.186,82.764,10.681,101.135
0.574,-1.598,0.231,91.003,6.531,115.234
0.580,-1.434,0.275,102.112,3.601,124.573
0.565,-1.270,0.318,114.868,0.854,131.592
0.568,-1.105,0.360,124.268,-2.014,138.306
0.574,-0.952,0.403,133.057,-3.235,143.738
0.569,-0.809,0.427,144.226,-4.028,146.851
0.535,-0.661,0.442,155.518,-5.676,150.391
0.541,-0.477,0.450,162.170,-6.531,155.029
0.540,-0.274,0.444,168.823,-9.094,160.034
0.525,-0.067,0.464,178.223,-13.855,165.649
0.542,0.175,0.480,182.495,-17.761,172.546
0.541,0.422,0.495,176.880,-16.113,180.176
0.551,0.651,0.512,164.429,-8.850,187.317
0.598,0.883,0.488,146.667,2.441,191.650
0.597,1.066,0.375,133.667,14.771,189.514
0.586,1.249,0.266,127.014,24.902,182.251
0.619,1.428,0.148,117.737,31.494,174.255
0.603,1.547,0.030,102.905,36.316,166.565
0.634,1.708,-0.087,85.266,41.382,158.142
0.634,1.832,-0.248,70.190,45.166,147.949
0.648,1.882,-0.423,58.960,46.875,133.606
0.636,1.895,-0.598,45.410,45.044,117.249
0.658,1.893,-0.705,30.029,37.781,99.670
0.716,1.868,-0.735,19.531,26.123,81.055
0.765,1.782,-0.702,14.465,11.658,60.181
0.813,1.671,-0.605,8.057,-0.671,39.490
0.853,1.548,-0.531,0.610,-8.789,20.752
0.879,1.414,-0.485,-3.906,-13.916,2.930
0.888,1.267,-0.455,-6.714,-15.503,-13.184
0.920,1.105,-0.453,-9.766,-16.724,-28.076
0.938,0.968,-0.435,-12.207,-17.456,-40.955
0.971,0.785,-0.404,-12.573,-21.545,-52.856
0.996,0.624,-0.316,-10.559,-25.513,-64.270
1.001,0.444,-0.211,-6.409,-27.771,-72.083
1.016,0.247,-0.102,-3.174,-28.809,-75.745
1.043,0.086,-0.012,-1.648,-28.625,-75.317
1.045,-0.030,0.035,-1.404,-24.963,-69.885
1.041,-0.104,0.035,-2.441,-18.188,-60.730
1.052,-0.126,0.005,-6.409,-10.254,-48.523
1.066,-0.126,-0.036,-13.367,-4.578,-36.133
1.068,-0.109,-0.066,-20.264,-2.563,-26.123
1.065,-0.088,-0.076,-24.109,-3.418,-19.104
1.053,-0.065,-0.075,-24.902,-5.920,-14.343
1.026,-0.026,-0.074,-24.414,-8.850,-11.230
1.026,0.006,-0.070,-23.376,-10.254,-9.216
1.020,0.016,-0.055,-21.423,-10.498,-9.338
1.015,0.023,-0.039,-15.137,-11.169,-11.841
1.013,0.024,-0.031,-5.676,-12.512,-15.320
1.015,0.031,-0.031,0.793,-12.939,-19.226
1.007,0.027,-0.024,2.563,-12.695,-22.095
0.996,-0.000,-0.019,0.427,-11.353,-21.118
1.001,0.003,-0.023,-3.906,-8.850,-18.494
1.009,-0.006,-0.018,-7.629,-6.836,-15.259
1.011,-0.022,-0.012,-9.888,-5.737,-13.062
1.020,-0.041,0.001,-9.094,-4.333,-12.329
1.020,-0.070,0.005,-4.272,-2.930,-14.465
1.019,-0.101,-0.024,4.089,-3.113,-17.761
1.016,-0.131,-0.003,13.245,-3.784,-19.470
0.998,-0.157,0.008,17.822,-5.249,-19.653
0.979,-0.171,-0.019,17.334,-5.981,-15.564
0.971,-0.167,-0.021,13.611,-3.113,-7.568
0.957,-0.122,-0.043,7.996,-1.038,1.526
0.954,-0.045,-0.073,1.587,1.160,11.230
0.956,0.036,-0.107,-3.967,2.258,19.043
0.959,0.109,-0.127,-7.996,2.441,24.353
0.966,0.179,-0.126,-10.620,1.770,26.489
0.979,0.238,-0.109,-10.986,0.916,25.513
0.983,0.273,-0.096,-8.789,-0.488,21.423
0.981,0.294,-0.094,-5.554,-1.221,15.503
0.975,0.307,-0.097,-3.723,-1.160,9.766
0.972,0.301,-0.113,-3.723,-0.366,5.371
0.962,0.294,-0.126,-5.127,0.488,2.380
0.957,0.294,-0.142,-7.568,1.282,0.793
0.956,0.318,-0.162,-10.376,1.709,0.305
0.959,0.341,-0.181,-13.977,0.977,1.587
0.962,0.362,-0.187,-19.043,-1.282,2.869
0.951,0.386,-0.191,-26.306,-3.357,3.601
0.940,0.403,-0.196,-34.607,-6.226,4.089
0.963,0.411,-0.193,-43.335,-8.606,4.211
0.979,0.400,-0.179,-51.331,-10.559,2.075
0.994,0.354,-0.140,-54.932,-12.573,-2.441
0.994,0.300,-0.100,-52.612,-14.648,-9.399
0.994,0.250,-0.065,-45.349,-16.724,-17.334

0.777,1.380,-0.618,-73.120,8.240,37.170
0.784,1.569,-0.632,-87.830,4.089,36.804
0.791,1.755,-0.637,-106.995,0.305,30.518
0.781,1.881,-0.624,-126.526,-4.456,15.198
0.745,1.925,-0.574,-144.348,-12.939,-7.080
0.698,1.910,-0.486,-157.166,-24.963,-34.973
0.641,1.830,-0.356,-161.987,-39.063,-66.833
0.574,1.715,-0.209,-161.316,-53.528,-99.548
0.532,1.539,-0.049,-161.194,-67.078,-131.104
0.549,1.272,0.139,-166.687,-75.623,-164.429
0.516,0.894,0.427,-170.837,-82.397,-205.078
0.414,0.386,0.755,-154.297,-94.788,-249.023
0.336,-0.158,1.056,-117.249,-104.065,-288.452
0.321,-0.719,1.413,-73.120,-100.159,-315.796
0.267,-1.319,1.633,-34.546,-87.402,-327.515
0.179,-1.801,1.625,-9.644,-64.270,-318.542
0.175,-2.046,1.381,-4.211,-32.715,-280.396
0.209,-2.066,1.030,-26.489,-3.723,-218.323
0.239,-1.946,0.664,-80.505,19.714,-148.071
0.390,-1.833,0.430,-149.414,42.175,-86.304
0.507,-1.748,0.384,-197.693,51.758,-48.828
0.631,-1.736,0.513,-195.679,42.786,-42.786
0.681,-1.867,0.698,-134.155,21.973,-66.345
0.658,-2.117,0.835,-40.894,-2.075,-105.164
0.572,-2.353,0.840,47.302,-21.729,-139.282
0.439,-2.555,0.724,115.234,-31.372,-158.386
0.249,-2.854,0.569,155.396,-30.273,-155.151
0.113,-3.088,0.423,162.964,-23.315,-125.366
0.105,-3.161,0.286,150.696,-19.592,-70.862
0.176,-3.054,0.183,134.338,-18.555,-10.498
0.245,-2.871,0.116,121.521,-16.174,41.443
0.280,-2.593,0.166,113.586,-15.442,81.360
0.278,-2.375,0.258,117.371,-20.264,107.422
0.304,-2.127,0.359,137.573,-29.236,123.474
0.302,-1.888,0.437,169.983,-39.368,136.597
0.270,-1.641,0.488,196.167,-47.974,152.527
0.229,-1.362,0.501,203.369,-55.237,172.546
0.189,-1.077,0.537,193.237,-59.753,198.059
0.159,-0.770,0.611,173.767,-61.340,226.440
0.135,-0.410,0.725,158.325,-61.646,252.380
0.162,-0.005,0.857,154.602,-61.707,273.376
0.239,0.368,0.966,154.907,-60.486,288.330
0.303,0.676,1.006,155.640,-54.932,294.678
0.283,0.962,0.925,156.311,-45.105,295.288
0.261,1.274,0.803,150.757,-30.334,296.204
0.276,1.546,0.625,145.508,-13.489,292.236
0.286,1.771,0.438,151.672,3.296,276.245
0.266,1.942,0.211,161.255,13.794,252.808
0.246,2.110,0.013,155.701,15.015,231.384
0.240,2.261,-0.143,127.319,11.414,218.262
0.281,2.391,-0.222,78.186,10.376,212.341
0.387,2.501,-0.291,17.212,18.066,205.322
0.453,2.498,-0.430,-31.738,28.809,190.430
0.496,2.421,-0.570,-56.763,36.133,165.649
0.630,2.348,-0.646,-54.321,32.288,129.700
0.754,2.243,-0.685,-25.940,16.907,83.008
0.829,2.025,-0.639,17.273,-4.395,31.128
0.897,1.774,-0.519,51.331,-25.879,-13.428
0.958,1.503,-0.360,65.002,-41.199,-45.593
1.004,1.225,-0.233,62.866,-45.105,-65.796
1.052,0.972,-0.118,45.898,-41.016,-71.106
1.101,0.756,-0.056,20.691,-36.194,-69.946
1.148,0.580,-0.004,-3.113,-27.771,-64.392
1.153,0.444,0.030,-16.235,-20.996,-57.129
1.162,0.319,0.078,-17.517,-16.541,-50.354
1.187,0.249,0.129,-13.916,-14.038,-46.509
1.189,0.197,0.163,-10.742,-13.428,-43.640
1.194,0.171,0.200,-7.935,-11.658,-40.100
1.174,0.160,0.205,-4.639,-8.362,-35.461
1.158,0.176,0.197,-3.540,-3.967,-31.433
1.123,0.194,0.161,-7.202,1.953,-26.428
1.075,0.233,0.094,-15.625,8.423,-20.386
1.054,0.271,0.008,-24.902,11.963,-14.709
1.043,0.303,-0.039,-33.386,13.306,-12.268
1.019,0.313,-0.064,-38.330,12.207,-13.245
1.001,0.280,-0.058,-37.292,8.911,-16.052
1.002,0.253,0.001,-28.870,3.967,-21.362
1.016,0.222,0.061,-14.954,-0.977,-28.992
1.012,0.178,0.102,-1.892,-4.517,-36.621
0.999,0.138,0.116,5.737,-3.967,-42.175
0.981,0.098,0.098,7.874,0.977,-43.518
0.965,0.060,0.057,4.883,6.775,-40.527
0.944,0.047,-0.007,-1.526,10.010,-33.997
0.948,0.062,-0.060,-9.033,10.437,-26.672
0.948,0.081,-0.092,-15.686,8.301,-20.447
0.961,0.083,-0.089,-17.456,5.066,-17.151
0.967,0.087,-0.057,-15.442,0.671,-15.991
0.969,0.083,-0.006,-11.292,-3.601,-16.418
0.969,0.086,0.049,-7.019,-6.531,-16.846
0.963,0.108,0.073,-3.662,-6.897,-16.663
0.963,0.130,0.063,-1.770,-4.211,-16.357
0.971,0.137,0.026,-3.967,-0.305,-15.320
0.967,0.127,-0.017,-7.141,2.869,-14.771
0.972,0.099,-0.040,-6.470,3.967,-15.442
0.976,0.070,-0.051,-3.845,3.601,-15.808
0.971,0.051,-0.053,-2.930,2.258,-15.076
0.962,0.039,-0.049,-4.028,1.099,-12.695
0.953,0.042,-0.052,-7.263,0.793,-8.057
0.940,0.066,-0.070,-11.902,1.282,-2.808
0.946,0.105,-0.082,-16.174,2.014,1.465
0.949,0.134,-0.089,-17.578,2.869,3.601
0.953,0.160,-0.082,-15.808,2.869,2.991
0.968,0.165,-0.050,-10.986,1.709,0.000
0.969,0.155,-0.024,-5.371,1.099,-3.235
0.969,0.147,-0.014,-1.221,1.099,-5.981
0.970,0.130,-0.012,0.488,1.526,-6.836
0.968,0.119,-0.024,-1.160,2.502,-5.920
0.961,0.106,-0.034,-3.235,4.150,-4.150
0.961,0.094,-0.042,-3.845,4.517,-2.686
0.958,0.097,-0.064,-3.357,3.540,-1.221
0.968,0.111,-0.071,-2.502,2.319,0.244
0.981,0.125,-0.054,-1.221,0.488,0.854
0.992,0.135,-0.024,1.892,-0.854,0.000
0.998,0.131,0.005,5.066,-1.526,-1.160
0.998,0.126,0.021,6.287,-0.977,-2.014
0.986,0.118,0.014,6.104,1.221,-2.197
0.982,0.119,-0.012,5.005,3.296,-1.526
0.975,0.130,-0.048,3.113,4.150,0.122
0.973,0.145,-0.079,0.183,3.967,2.136

0.839,1.448,-0.436,-63.049,10.376,22.095
0.812,1.567,-0.452,-74.768,8.728,16.357
0.800,1.688,-0.464,-86.060,7.141,8.789
0.790,1.778,-0.443,-95.764,3.418,0.061
0.787,1.848,-0.408,-106.567,-2.686,-10.071
0.795,1.898,-0.341,-121.155,-7.874,-22.766
0.780,1.888,-0.267,-137.451,-12.695,-39.063
0.731,1.803,-0.196,-152.832,-17.212,-58.350
0.660,1.694,-0.124,-163.208,-23.376,-79.468
0.588,1.560,-0.042,-169.678,-31.921,-101.868
0.502,1.397,0.072,-174.316,-41.748,-123.901
0.503,1.190,0.215,-178.162,-51.514,-145.935
0.467,0.874,0.421,-181.335,-58.777,-174.072
0.402,0.444,0.671,-173.218,-67.078,-209.229
0.331,-0.055,0.968,-144.958,-76.782,-245.789
0.288,-0.552,1.243,-103.577,-78.552,-276.733
0.299,-0.949,1.397,-71.411,-69.397,-290.955
0.293,-1.389,1.455,-63.660,-49.072,-286.743
0.276,-1.901,1.457,-71.106,-19.836,-269.409
0.272,-2.400,1.414,-69.336,6.348,-246.948
0.296,-2.789,1.289,-46.814,23.254,-221.191
0.341,-2.981,1.069,-20.569,34.424,-187.866
0.332,-3.036,0.802,-10.132,40.771,-144.714
0.332,-2.981,0.526,-20.203,46.753,-91.248
0.419,-2.802,0.336,-45.776,52.673,-34.119
0.513,-2.594,0.231,-70.007,53.406,11.230
0.575,-2.380,0.225,-76.172,45.715,37.598
0.618,-2.210,0.269,-49.866,33.875,44.556
0.633,-2.116,0.304,2.991,22.156,37.231
0.603,-2.012,0.289,61.523,11.902,25.452
0.563,-1.943,0.252,107.117,4.639,19.165
0.531,-1.874,0.207,128.723,2.197,23.743
0.499,-1.806,0.139,130.859,2.441,40.039
0.486,-1.682,0.099,124.023,3.296,64.392
0.472,-1.485,0.045,115.784,3.174,89.355
0.475,-1.333,0.036,113.281,1.343,109.009
0.483,-1.176,0.035,115.234,-3.296,123.901
0.474,-1.023,0.057,121.887,-9.033,135.132
0.488,-0.860,0.106,131.165,-15.747,142.273
0.502,-0.709,0.152,141.541,-23.315,146.423
0.509,-0.581,0.226,154.236,-31.738,149.231
0.521,-0.418,0.315,169.006,-40.100,152.649
0.516,-0.216,0.421,185.059,-47.363,158.020
0.539,0.017,0.563,196.655,-52.551,165.833
0.577,0.258,0.702,194.336,-51.208,176.819
0.562,0.468,0.766,176.575,-42.358,190.674
0.516,0.675,0.734,149.048,-28.748,207.642
0.519,0.908,0.657,117.798,-9.583,224.792
0.532,1.130,0.513,90.698,10.071,238.403
0.555,1.364,0.328,74.585,26.672,242.004
0.582,1.611,0.114,69.275,37.170,233.398
0.553,1.869,-0.056,69.946,38.879,216.125
0.589,2.151,-0.148,72.937,33.447,193.787
0.643,2.369,-0.260,77.942,25.269,165.527
0.666,2.474,-0.345,84.961,16.907,129.761
0.683,2.472,-0.394,88.928,8.728,91.309
0.694,2.370,-0.424,84.229,3.296,56.824
0.716,2.169,-0.467,70.679,1.709,28.564
0.738,1.913,-0.523,51.331,2.502,8.545
0.790,1.655,-0.547,30.029,2.075,-3.296
0.864,1.440,-0.551,11.780,0.305,-11.658
0.900,1.244,-0.544,0.427,-4.456,-20.447
0.917,1.062,-0.500,-3.540,-12.329,-28.931
0.971,0.906,-0.414,-5.554,-18.860,-34.485
1.000,0.752,-0.325,-11.475,-25.696,-38.696
1.041,0.649,-0.201,-19.958,-29.724,-41.626
1.078,0.499,-0.057,-26.184,-23.987,-41.565
1.094,0.348,0.077,-26.917,-14.709,-41.626
1.102,0.244,0.166,-20.264,-6.592,-43.030
1.119,0.188,0.190,-10.620,-0.732,-44.128
1.109,0.151,0.168,-7.019,2.441,-42.053
1.081,0.158,0.100,-12.146,3.601,-38.025
1.058,0.159,0.042,-19.409,7.019,-31.921
1.058,0.170,0.008,-26.672,7.507,-26.733
1.052,0.180,0.010,-30.090,6.226,-24.353
1.049,0.175,0.026,-26.794,2.808,-26.245
1.030,0.168,0.039,-19.287,-2.502,-30.823
1.017,0.158,0.051,-9.949,-7.263,-36.316
1.009,0.147,0.061,-1.770,-10.132,-41.626
0.992,0.145,0.055,3.235,-13.000,-45.776
0.977,0.127,0.061,5.005,-11.719,-46.936
0.972,0.106,0.057,1.892,-6.714,-45.898
0.964,0.085,0.049,-4.150,-2.563,-42.114
0.963,0.060,0.038,-8.911,0.244,-37.720
0.965,0.051,0.015,-11.841,1.770,-33.691
0.956,0.053,-0.008,-13.367,2.014,-29.724
0.955,0.061,-0.034,-15.381,0.793,-24.963
0.974,0.078,-0.043,-19.653,-0.488,-20.386
0.985,0.088,-0.054,-23.010,-1.892,-16.785
0.976,0.080,-0.039,-22.034,-4.272,-15.625
0.978,0.073,-0.034,-18.616,-6.226,-16.052
0.978,0.067,-0.022,-14.709,-7.324,-17.029
0.974,0.061,-0.013,-9.705,-8.179,-17.944
0.969,0.069,-0.023,-7.263,-7.874,-17.395
0.960,0.077,-0.039,-9.949,-6.836,-15.320
0.958,0.085,-0.054,-15.198,-4.822,-11.414
0.960,0.088,-0.071,-18.860,-2.808,-7.751
0.967,0.099,-0.073,-19.470,-2.136,-6.348
0.973,0.101,-0.064,-17.639,-2.319,-6.348
0.977,0.093,-0.048,-13.611,-2.502,-7.874
0.976,0.079,-0.038,-8.057,-2.686,-9.888
0.986,0.057,-0.021,-3.906,-2.747,-12.024
0.984,0.032,-0.008,-0.671,-2.563,-13.184
0.982,0.003,0.003,2.075,-1.648,-13.550
0.977,-0.018,0.006,3.052,0.488,-11.475
0.972,-0.021,-0.005,2.136,3.113,-7.263
0.974,-0.015,-0.025,0.427,5.615,-2.686
0.976,0.002,-0.050,-2.136,7.507,2.014
0.974,0.030,-0.069,-4.456,8.179,6.348
0.982,0.071,-0.079,-5.432,7.507,9.216
0.982,0.103,-0.081,-4.211,5.249,9.644
0.985,0.121,-0.070,-1.709,2.747,8.728
0.982,0.138,-0.067,0.549,0.793,7.385
0.984,0.151,-0.059,2.075,-0.061,5.981
0.988,0.150,-0.050,3.784,-0.671,4.700
0.990,0.145,-0.044,4.822,-0.671,3.479
0.982,0.140,-0.041,4.822,0.061,2.563
0.981,0.143,-0.038,3.662,0.732,2.991
0.983,0.148,-0.041,1.709,1.160,3.662

0.910,1.619,-0.339,-46.448,-6.042,52.307
0.908,1.889,-0.364,-56.580,-4.089,47.241
0.893,2.102,-0.415,-71.045,-2.197,36.804
0.854,2.217,-0.445,-86.914,-0.244,20.142
0.794,2.208,-0.437,-101.746,-2.258,-2.563
0.709,2.110,-0.409,-113.708,-9.033,-29.053
0.617,1.989,-0.334,-121.521,-19.958,-55.786
0.546,1.896,-0.203,-127.075,-33.020,-79.712
0.512,1.802,-0.054,-135.559,-44.739,-100.220
0.503,1.708,0.097,-151.855,-52.063,-117.981
0.440,1.537,0.243,-174.622,-55.481,-134.338
0.422,1.359,0.372,-195.923,-57.861,-154.114
0.389,1.114,0.561,-203.796,-61.829,-181.641
0.402,0.718,0.832,-193.909,-65.308,-216.248
0.409,0.199,1.172,-174.744,-62.317,-255.249
0.364,-0.416,1.475,-142.395,-52.917,-292.908
0.296,-1.054,1.703,-98.083,-36.072,-320.129
0.264,-1.652,1.782,-54.199,-15.625,-326.965
0.267,-2.087,1.575,-22.949,8.118,-306.946
0.255,-2.179,1.201,-18.799,31.555,-260.376
0.257,-2.144,0.797,-46.814,49.561,-196.045
0.346,-2.111,0.469,-104.248,63.110,-127.808
0.479,-2.049,0.373,-168.518,70.313,-70.435
0.601,-2.041,0.471,-200.684,65.979,-40.161
0.683,-2.204,0.685,-171.448,52.063,-40.222
0.713,-2.441,0.897,-88.867,34.180,-62.683
0.672,-2.638,0.920,6.775,19.104,-89.050
0.609,-2.757,0.794,82.520,12.268,-100.464
0.506,-2.834,0.570,123.413,14.771,-92.651
0.390,-2.795,0.309,127.869,19.348,-63.232
0.334,-2.650,0.100,108.215,23.499,-17.456
0.356,-2.414,-0.047,79.651,25.574,31.616
0.385,-2.126,-0.124,58.655,21.851,72.998
0.431,-1.842,-0.085,55.359,12.024,100.525
0.477,-1.597,0.007,63.538,1.282,118.103
0.522,-1.373,0.113,78.552,-7.446,126.831
0.563,-1.181,0.189,98.816,-14.465,128.601
0.577,-1.026,0.251,121.094,-18.311,126.160
0.577,-0.903,0.290,141.174,-21.484,122.742
0.556,-0.788,0.298,156.311,-22.888,120.911
0.532,-0.685,0.290,166.382,-23.804,121.521
0.531,-0.575,0.280,172.791,-26.367,123.657
0.533,-0.474,0.291,178.528,-31.738,127.747
0.550,-0.375,0.350,184.265,-38.635,133.911
0.561,-0.249,0.422,183.105,-42.725,144.043
0.537,-0.102,0.459,174.744,-42.053,158.386
0.524,0.083,0.474,164.856,-37.659,175.293
0.525,0.302,0.485,154.785,-33.386,192.444
0.516,0.526,0.471,147.400,-31.738,206.238
0.532,0.786,0.448,142.273,-30.518,214.539
0.537,1.020,0.403,137.512,-29.297,218.079
0.557,1.241,0.345,128.357,-26.733,218.872
0.587,1.476,0.259,113.708,-18.555,217.407
0.551,1.670,0.133,96.191,-9.949,211.548
0.502,1.874,0.022,74.585,-2.075,204.224
0.538,2.092,-0.063,49.377,6.775,195.007
0.592,2.221,-0.172,28.625,15.625,179.626
0.634,2.237,-0.301,12.512,22.095,157.654
0.642,2.149,-0.395,-1.160,24.902,132.446
0.705,2.060,-0.438,-7.629,22.766,105.713
0.773,1.963,-0.463,1.465,15.869,75.867
0.820,1.818,-0.456,18.494,6.104,43.823
0.861,1.655,-0.429,24.719,-3.052,16.174
0.883,1.470,-0.386,19.714,-11.047,-3.906
0.897,1.264,-0.341,14.404,-16.235,-19.897
0.944,1.061,-0.268,9.216,-17.151,-30.640
0.958,0.894,-0.225,3.479,-20.813,-40.405
1.002,0.736,-0.161,-0.183,-22.888,-47.546
1.047,0.551,-0.070,-2.930,-19.897,-50.537
1.076,0.374,0.049,-2.319,-14.771,-53.833
1.096,0.193,0.151,4.517,-7.996,-55.420
1.100,0.085,0.197,11.963,-3.540,-55.237
1.077,0.033,0.192,13.977,0.061,-49.622
1.046,0.027,0.131,8.179,5.737,-38.208
1.036,0.085,0.048,-2.991,11.047,-24.475
1.011,0.151,-0.041,-14.893,12.329,-12.329
1.007,0.213,-0.081,-25.208,11.963,-4.395
1.013,0.261,-0.087,-30.701,8.118,-1.160
1.029,0.287,-0.055,-29.297,1.831,-2.075
1.036,0.279,0.006,-21.973,-5.188,-7.568
1.035,0.272,0.067,-11.047,-11.963,-16.479
1.024,0.250,0.112,0.488,-13.611,-25.269
1.019,0.203,0.147,8.728,-10.254,-30.579
0.987,0.181,0.128,10.620,-7.690,-33.386
0.967,0.161,0.081,8.362,-1.221,-30.762
0.957,0.163,0.017,3.723,2.808,-25.757
0.965,0.187,-0.029,-2.075,3.784,-20.508
0.963,0.196,-0.046,-6.653,1.953,-16.724
0.976,0.195,-0.022,-8.850,-0.732,-15.320
0.980,0.173,0.016,-7.507,-3.113,-16.113
0.985,0.156,0.057,-3.296,-5.737,-18.433
0.988,0.136,0.079,1.770,-7.507,-20.508
0.970,0.112,0.083,5.371,-7.324,-21.729
0.955,0.096,0.070,7.629,-6.042,-21.362
0.939,0.099,0.029,7.568,-4.211,-18.066
0.935,0.117,-0.013,3.967,-2.808,-12.695
0.938,0.140,-0.041,-1.404,-2.014,-6.714
0.944,0.161,-0.054,-5.920,-1.465,-2.197
0.948,0.172,-0.047,-9.338,-1.465,0.916
0.959,0.193,-0.025,-10.376,-1.831,2.930
0.965,0.218,-0.007,-9.216,-2.441,3.174
0.971,0.240,0.002,-6.775,-2.502,1.831
0.975,0.255,0.001,-4.150,-1.953,-0.549
0.974,0.259,-0.005,-2.197,-0.854,-2.441
0.969,0.246,-0.021,-1.404,0.549,-4.272
0.966,0.228,-0.034,-1.343,1.709,-6.653
0.965,0.199,-0.039,-0.244,2.319,-8.362
0.966,0.173,-0.036,0.427,2.625,-8.667
0.971,0.153,-0.030,0.244,2.441,-8.118
0.968,0.127,-0.027,-0.061,2.075,-6.409
0.969,0.129,-0.022,-0.610,1.709,-3.601
0.968,0.146,-0.016,-0.427,0.671,-1.526
0.970,0.179,-0.014,-1.160,0.244,0.916
0.969,0.215,-0.013,-2.991,0.122,3.052
0.979,0.228,-0.004,-3.967,0.183,3.601
0.978,0.228,0.001,-3.723,0.671,2.686
0.976,0.226,-0.002,-1.526,0.793,0.854
0.979,0.219,-0.002,0.671,0.610,-0.916
0.974,0.204,-0.004,0.610,0.366,-1.770

0.775,1.809,-0.311,-23.865,-1.770,9.521
0.759,2.038,-0.447,-40.283,-2.686,-2.014
0.747,2.227,-0.539,-64.819,-3.967,-18.188
0.723,2.326,-0.574,-93.872,-10.376,-41.809
0.673,2.303,-0.531,-120.850,-19.958,-70.557
0.617,2.187,-0.395,-138.306,-32.410,-102.112
0.580,2.075,-0.197,-145.996,-48.950,-138.245
0.514,1.926,0.059,-144.775,-62.988,-176.392
0.413,1.657,0.317,-144.531,-70.068,-212.463
0.371,1.316,0.573,-153.076,-70.801,-244.873
0.266,0.821,0.846,-159.180,-66.101,-277.222
0.168,0.241,1.071,-153.076,-58.167,-307.678
0.132,-0.453,1.328,-136.108,-42.297,-333.191
0.106,-1.294,1.560,-106.262,-26.184,-351.074
0.092,-2.036,1.673,-59.998,-12.451,-355.896
0.093,-2.514,1.614,-8.240,1.831,-339.844
0.143,-2.749,1.370,12.695,20.203,-292.786
0.177,-2.644,1.006,-27.222,42.419,-216.248
0.207,-2.291,0.632,-109.131,63.782,-123.352
0.313,-1.888,0.410,-191.223,81.116,-44.617
0.508,-1.553,0.319,-246.460,90.149,-0.916
0.655,-1.410,0.373,-246.765,86.792,2.563
0.671,-1.542,0.471,-177.795,69.763,-38.391
0.602,-1.924,0.638,-65.735,44.861,-104.492
0.556,-2.439,0.766,52.429,26.184,-169.922
0.394,-2.974,0.724,149.048,17.883,-214.233
0.077,-3.484,0.512,207.703,16.663,-217.102
-0.056,-3.751,0.256,212.036,21.240,-166.687
-0.113,-3.670,-0.033,166.199,31.067,-74.951
-0.055,-3.292,-0.256,95.947,44.312,30.151
0.013,-2.822,-0.395,37.048,52.063,118.896
0.100,-2.353,-0.346,13.123,43.823,174.133
0.192,-1.947,-0.225,31.433,26.489,196.106
0.229,-1.610,-0.096,83.008,3.723,190.674
0.222,-1.387,0.002,146.606,-18.738,172.302
0.190,-1.247,0.101,202.576,-41.077,154.358
0.161,-1.127,0.178,235.352,-57.312,145.325
0.095,-1.026,0.181,244.995,-66.772,150.391
-0.031,-0.983,0.199,238.953,-72.449,170.349
-0.165,-0.823,0.288,210.571,-76.111,206.604
-0.200,-0.475,0.373,173.706,-78.369,251.831
-0.208,-0.113,0.501,157.043,-82.275,292.725
-0.183,0.298,0.718,150.146,-87.830,323.792
-0.101,0.786,0.988,142.761,-89.355,344.482
-0.026,1.250,1.144,144.714,-80.017,349.976
0.080,1.595,1.097,144.958,-58.289,343.506
0.182,1.932,0.896,131.836,-29.114,329.590
0.227,2.171,0.584,107.666,0.305,309.875
0.324,2.394,0.220,76.843,25.146,284.607
0.418,2.550,-0.116,53.650,42.297,255.493
0.491,2.642,-0.388,43.396,44.128,220.642
0.608,2.739,-0.575,39.246,32.776,179.993
0.733,2.776,-0.658,43.274,14.404,135.559
0.856,2.765,-0.618,48.523,-4.150,88.501
0.953,2.657,-0.531,48.767,-19.592,39.978
0.998,2.363,-0.408,46.143,-29.053,-4.761
1.029,1.997,-0.306,38.513,-31.677,-40.283
1.051,1.610,-0.228,27.283,-29.419,-66.345
1.038,1.245,-0.195,17.395,-26.611,-82.886
1.048,0.927,-0.147,8.301,-24.292,-88.867
1.093,0.656,-0.105,-2.075,-21.667,-87.463
1.118,0.430,-0.070,-12.329,-19.714,-81.543
1.162,0.246,0.000,-18.372,-17.700,-73.425
1.180,0.084,0.100,-18.066,-17.578,-66.345
1.195,-0.029,0.216,-12.451,-16.785,-62.012
1.188,-0.107,0.303,-4.822,-9.949,-56.274
1.171,-0.138,0.314,-2.502,0.244,-46.997
1.143,-0.130,0.258,-7.874,12.146,-33.691
1.109,-0.091,0.159,-17.761,22.278,-18.738
1.062,-0.008,0.037,-26.550,28.198,-6.531
1.066,0.069,-0.060,-30.457,30.762,-0.061
1.028,0.116,-0.131,-28.992,28.076,0.549
1.003,0.164,-0.156,-24.719,20.874,-1.953
0.984,0.192,-0.159,-18.860,12.390,-5.493
0.972,0.214,-0.146,-13.855,4.150,-9.216
0.966,0.224,-0.116,-10.986,-1.587,-12.817
0.948,0.221,-0.088,-8.301,-4.822,-16.968
0.945,0.224,-0.056,-5.493,-5.432,-21.362
0.948,0.207,-0.056,-3.845,-5.005,-25.757
0.947,0.189,-0.064,-3.418,-3.723,-28.809
0.947,0.152,-0.078,-3.235,-2.502,-30.640
0.946,0.126,-0.088,-3.418,-2.380,-31.677
0.950,0.115,-0.093,-3.967,-2.869,-31.799
0.944,0.085,-0.089,-5.371,-3.113,-30.273
0.939,0.072,-0.081,-7.935,-3.601,-27.344
0.937,0.060,-0.070,-8.972,-4.700,-23.804
0.945,0.051,-0.049,-8.606,-5.249,-20.996
0.943,0.045,-0.038,-7.996,-6.042,-18.616
0.948,0.040,-0.029,-5.432,-6.104,-17.212
0.953,0.028,-0.029,-3.174,-5.432,-16.113
0.945,0.035,-0.029,-2.869,-4.944,-13.916
0.933,0.038,-0.048,-4.211,-4.517,-10.437
0.931,0.056,-0.059,-6.287,-4.028,-6.653
0.923,0.081,-0.074,-8.911,-3.906,-2.808
0.922,0.110,-0.089,-11.658,-4.517,-0.122
0.920,0.135,-0.098,-13.062,-5.188,2.075
0.942,0.147,-0.086,-12.756,-5.066,3.601
0.962,0.132,-0.063,-10.803,-5.920,2.930
0.950,0.115,-0.044,-6.592,-7.935,0.122
0.967,0.085,-0.007,-0.916,-8.179,-2.014
0.959,0.059,0.001,4.517,-8.667,-4.272
0.963,0.041,0.015,6.836,-6.226,-4.272
0.984,0.024,0.025,5.859,-3.174,-2.197
0.978,0.025,0.011,3.601,-2.014,1.038
0.982,0.040,-0.001,0.916,-0.366,5.371
0.984,0.078,-0.024,-1.892,0.793,9.460
0.985,0.118,-0.045,-3.479,0.549,12.390
0.986,0.154,-0.055,-3.784,-0.183,13.733
0.993,0.180,-0.058,-4.028,-0.977,13.794
0.995,0.193,-0.057,-4.089,-2.136,12.756
1.001,0.198,-0.053,-2.502,-2.808,10.620
1.003,0.202,-0.051,0.916,-3.540,7.629
1.002,0.202,-0.049,5.005,-4.211,4.395
1.000,0.204,-0.053,7.568,-4.944,2.075
0.995,0.211,-0.064,7.080,-5.066,1.343
0.995,0.222,-0.069,4.456,-5.249,1.831
1.003,0.224,-0.063,1.465,-5.615,2.197
1.011,0.213,-0.047,0.488,-5.981,1.770
1.014,0.196,-0.030,1.892,-6.470,0.061

0.753,2.159,-0.334,-64.026,-39.368,12.085
0.795,2.478,-0.420,-88.257,-47.913,-3.540
0.813,2.685,-0.439,-107.056,-54.138,-22.949
0.819,2.722,-0.339,-116.943,-60.547,-50.903
0.799,2.607,-0.182,-121.582,-67.383,-84.656
0.750,2.427,-0.016,-127.747,-73.547,-118.652
0.685,2.182,0.162,-139.343,-75.867,-147.888
0.608,1.943,0.356,-156.738,-77.393,-173.035
0.576,1.721,0.575,-175.354,-76.050,-195.312
0.572,1.338,0.865,-193.726,-67.688,-219.849
0.552,0.895,1.235,-203.064,-55.908,-250.977
0.424,0.333,1.566,-183.411,-45.105,-285.583
0.341,-0.303,1.865,-135.681,-26.978,-320.007
0.282,-0.956,2.067,-82.153,2.075,-349.060
0.144,-1.600,2.072,-36.499,31.128,-359.680
0.038,-2.133,1.927,-9.705,59.631,-347.534
0.013,-2.614,1.717,-4.883,90.515,-310.486
-0.008,-2.910,1.366,-13.428,116.516,-255.310
-0.111,-2.907,0.950,-34.851,133.545,-187.439
-0.038,-2.886,0.533,-69.092,144.226,-117.920
0.061,-2.853,0.252,-107.300,151.184,-57.007
0.153,-2.700,0.035,-132.935,146.240,-11.047
0.240,-2.494,-0.081,-134.644,131.165,17.273
0.321,-2.325,-0.105,-113.708,110.596,28.320
0.339,-2.217,-0.094,-68.481,84.778,23.865
0.332,-2.147,-0.076,-9.521,59.265,11.475
0.330,-2.139,-0.075,42.786,37.903,-0.122
0.319,-2.163,-0.094,83.130,20.935,-5.676
0.287,-2.191,-0.148,110.779,9.033,-3.906
0.245,-2.226,-0.204,129.211,0.061,4.211
0.205,-2.193,-0.267,144.531,-9.460,19.592
0.214,-2.083,-0.300,150.391,-18.555,42.480
0.213,-1.937,-0.309,146.423,-25.635,67.993
0.194,-1.790,-0.315,137.756,-31.250,94.360
0.208,-1.578,-0.279,128.174,-36.560,119.690
0.224,-1.391,-0.242,123.596,-43.213,140.564
0.222,-1.230,-0.175,128.052,-51.758,155.884
0.265,-1.035,-0.095,134.888,-62.195,167.847
0.276,-0.873,0.000,142.639,-74.524,178.650
0.306,-0.692,0.135,151.306,-88.257,188.232
0.332,-0.444,0.318,158.142,-102.661,199.646
0.374,-0.134,0.503,165.405,-113.831,210.754
0.460,0.189,0.672,168.823,-117.737,219.177
0.482,0.473,0.771,165.222,-115.967,224.304
0.507,0.753,0.914,158.386,-110.413,226.318
0.600,0.984,1.060,149.719,-97.290,223.816
0.664,1.155,1.082,138.977,-78.430,217.407
0.696,1.290,0.995,126.343,-53.955,210.266
0.727,1.398,0.876,113.220,-29.907,203.003
0.736,1.504,0.695,98.206,-9.338,196.472
0.735,1.647,0.503,87.891,4.822,186.462
0.738,1.817,0.351,87.219,9.766,171.448
0.784,1.948,0.245,91.797,8.789,152.283
0.837,2.058,0.164,90.088,6.897,130.920
0.894,2.128,0.115,76.660,6.653,109.558
0.941,2.087,0.067,56.580,10.437,88.074
0.976,1.964,0.016,34.790,17.151,67.322
0.985,1.784,-0.073,16.174,22.766,47.607
1.001,1.636,-0.141,3.784,25.146,29.785
1.035,1.514,-0.196,0.061,22.339,11.536
1.025,1.361,-0.227,3.784,15.259,-8.606
1.019,1.194,-0.218,6.531,6.287,-26.978
1.013,1.002,-0.175,5.737,-0.732,-41.443
0.989,0.788,-0.126,2.808,-3.784,-50.476
1.015,0.589,-0.039,-1.343,-3.967,-52.979
1.026,0.448,0.006,-2.319,-6.226,-54.626
1.043,0.330,0.059,0.061,-3.784,-52.551
1.053,0.236,0.098,0.244,-0.549,-47.363
1.052,0.168,0.133,-2.991,2.380,-41.565
1.038,0.130,0.158,-8.667,4.333,-34.607
1.034,0.133,0.151,-17.334,5.249,-25.696
1.025,0.162,0.122,-25.574,7.263,-17.334
1.004,0.206,0.079,-30.945,9.583,-12.451
0.999,0.256,0.048,-34.180,10.498,-10.803
1.000,0.271,0.028,-35.706,9.705,-12.817
1.000,0.242,0.031,-31.982,7.507,-18.860
1.003,0.190,0.056,-21.423,3.967,-28.381
1.005,0.121,0.080,-8.057,0.916,-38.818
0.998,0.037,0.097,2.563,-0.244,-47.363
0.980,-0.055,0.117,8.240,0.183,-51.331
0.953,-0.118,0.121,9.949,2.380,-49.500
0.938,-0.119,0.085,7.507,4.639,-40.588
0.926,-0.062,0.023,-0.244,6.348,-28.442
0.917,0.036,-0.040,-12.024,7.324,-15.625
0.942,0.119,-0.076,-24.719,7.446,-6.042
0.953,0.148,-0.080,-31.555,6.165,-2.930
0.956,0.123,-0.054,-25.818,1.953,-7.507
0.970,0.077,0.012,-10.864,-3.174,-15.076
0.967,0.035,0.069,2.808,-8.179,-21.484
0.968,0.007,0.108,8.789,-9.521,-23.682
0.958,-0.029,0.124,7.080,-7.751,-20.813
0.948,-0.044,0.114,2.197,-3.967,-15.076
0.944,-0.020,0.083,-2.502,-0.793,-7.568
0.940,0.032,0.041,-6.836,0.244,-0.549
0.936,0.096,0.000,-11.963,0.427,5.432
0.938,0.146,-0.020,-15.686,-0.488,9.155
0.947,0.187,-0.020,-16.907,-1.343,10.315
0.952,0.214,-0.012,-14.526,-2.319,8.911
0.959,0.220,0.002,-8.972,-3.601,5.371
0.964,0.220,0.014,-3.845,-4.517,1.343
0.963,0.218,0.030,-0.183,-4.456,-1.587
0.963,0.202,0.045,1.404,-3.357,-3.418
0.959,0.182,0.046,0.488,-1.831,-3.845
0.962,0.172,0.032,-2.014,0.366,-2.625
0.962,0.160,0.015,-4.150,2.075,-1.770
0.964,0.144,0.001,-4.639,2.441,-0.854
0.968,0.140,-0.005,-4.639,1.648,0.061
0.975,0.146,-0.003,-4.028,0.061,0.549
0.983,0.154,0.004,-3.479,-1.465,0.977
0.982,0.170,0.012,-3.052,-2.258,1.160
0.984,0.195,0.017,-3.540,-2.625,1.953
0.985,0.225,0.022,-4.883,-2.747,2.625
0.999,0.243,0.034,-6.897,-2.441,2.686
1.002,0.242,0.045,-8.301,-2.136,1.160
1.009,0.212,0.062,-7.141,-1.892,-1.160
1.012,0.171,0.076,-4.517,-1.587,-3.296
1.012,0.137,0.081,-2.197,-1.282,-5.371
1.009,0.108,0.073,-1.221,-0.549,-5.981
1.007,0.097,0.063,-1.648,0.549,-5.005

0.972,1.353,-0.445,-43.213,-3.052,61.157
0.976,1.498,-0.427,-44.800,-6.836,45.227
0.957,1.578,-0.409,-50.537,-9.521,26.733
0.920,1.625,-0.393,-59.143,-11.475,7.324
0.888,1.650,-0.352,-65.308,-13.611,-11.963
0.869,1.644,-0.305,-71.411,-15.625,-31.067
0.849,1.633,-0.285,-82.336,-15.503,-48.340
0.819,1.620,-0.292,-97.229,-14.771,-64.697
0.782,1.584,-0.301,-111.755,-16.174,-81.970
0.734,1.512,-0.264,-124.695,-20.203,-100.464
0.701,1.415,-0.184,-134.277,-25.574,-121.155
0.637,1.252,-0.087,-139.587,-31.189,-147.400
0.544,1.048,0.026,-134.216,-38.696,-179.138
0.495,0.801,0.193,-116.943,-47.546,-211.060
0.429,0.531,0.413,-95.825,-53.040,-246.399
0.356,0.252,0.603,-75.378,-50.964,-280.701
0.248,-0.047,0.692,-58.289,-41.016,-305.054
0.158,-0.319,0.707,-48.645,-25.818,-317.566
0.114,-0.467,0.667,-50.537,-9.338,-314.087
0.115,-0.574,0.637,-70.313,6.653,-296.570
0.084,-0.752,0.557,-106.018,22.095,-281.433
0.005,-1.125,0.485,-130.249,28.198,-276.611
-0.070,-1.607,0.482,-124.756,25.391,-278.931
-0.086,-2.135,0.538,-81.299,12.817,-285.400
-0.073,-2.586,0.600,-6.531,-5.676,-285.095
-0.032,-2.843,0.613,61.035,-17.090,-264.709
0.031,-2.983,0.551,82.947,-12.512,-219.543
0.089,-2.959,0.390,43.457,10.925,-148.376
0.152,-2.711,0.181,-31.494,41.626,-62.683
0.177,-2.319,-0.022,-98.145,64.453,14.771
0.219,-1.938,-0.146,-130.981,72.754,64.697
0.307,-1.666,-0.230,-124.023,65.308,79.651
0.361,-1.537,-0.241,-78.552,44.189,62.439
0.346,-1.607,-0.202,-7.568,13.428,26.611
0.277,-1.817,-0.109,68.115,-18.738,-11.108
0.262,-2.056,0.023,129.028,-44.067,-33.386
0.204,-2.261,0.140,165.527,-57.739,-34.119
0.149,-2.392,0.250,169.128,-58.289,-9.521
0.132,-2.373,0.273,139.465,-44.678,35.400
0.150,-2.209,0.225,98.816,-25.391,88.745
0.133,-1.975,0.140,70.068,-9.888,135.559
0.110,-1.705,0.056,56.030,-3.418,170.288
0.134,-1.462,-0.010,53.894,-4.272,192.200
0.197,-1.262,-0.025,67.993,-13.367,199.707
0.236,-1.128,0.006,97.351,-29.846,197.021
0.243,-1.007,0.056,126.831,-49.194,194.458
0.231,-0.875,0.145,142.151,-65.735,200.623
0.243,-0.681,0.241,140.198,-73.975,214.417
0.246,-0.500,0.354,133.728,-75.745,228.394
0.241,-0.351,0.488,130.127,-74.219,244.812
0.261,-0.133,0.570,121.033,-65.979,265.747
0.259,0.107,0.537,106.750,-51.514,287.415
0.253,0.362,0.443,93.811,-35.706,308.777
0.277,0.670,0.322,85.449,-25.452,327.087
0.328,1.023,0.199,81.421,-20.630,336.182
0.447,1.415,0.070,78.613,-18.311,331.543
0.566,1.793,-0.034,72.815,-17.090,308.105
0.719,2.049,-0.105,61.218,-16.357,269.531
0.773,2.174,-0.149,49.622,-15.808,227.356
0.789,2.227,-0.119,33.386,-13.550,186.707
0.790,2.156,-0.102,18.066,-8.423,151.733
0.827,2.115,-0.152,12.268,0.122,121.094
0.861,2.080,-0.239,23.376,6.897,89.111
0.905,1.998,-0.322,39.917,7.812,56.702
0.954,1.861,-0.384,49.866,5.188,27.344
0.985,1.657,-0.427,49.316,1.099,2.747
1.019,1.410,-0.420,39.673,-4.333,-14.526
1.043,1.156,-0.380,26.855,-10.376,-25.574
1.089,0.947,-0.275,13.245,-14.954,-31.433
1.120,0.786,-0.171,0.488,-17.456,-33.691
1.143,0.662,-0.118,-7.935,-15.015,-33.936
1.159,0.546,-0.079,-13.672,-9.338,-34.790
1.158,0.442,-0.056,-16.418,-4.150,-37.476
1.158,0.338,-0.056,-16.357,-1.892,-40.466
1.145,0.238,-0.042,-14.587,-0.610,-44.250
1.130,0.123,-0.017,-12.024,0.977,-46.387
1.110,0.019,-0.003,-8.606,2.502,-46.570
1.099,-0.030,-0.006,-2.747,4.333,-45.959
1.078,-0.048,-0.026,3.418,5.920,-44.128
1.060,-0.057,-0.053,2.930,7.385,-39.368
1.037,-0.060,-0.078,-3.723,9.033,-32.349
1.025,-0.049,-0.091,-12.329,9.888,-24.231
1.027,-0.015,-0.088,-19.287,8.484,-17.090
1.031,0.022,-0.076,-21.301,4.944,-13.611
1.025,0.055,-0.048,-18.921,2.075,-14.099
1.017,0.082,-0.031,-14.832,0.427,-16.418
1.005,0.088,-0.019,-10.864,-0.305,-19.592
1.000,0.090,-0.001,-7.080,0.000,-22.644
0.983,0.072,-0.009,-5.188,1.282,-24.658
0.972,0.053,-0.021,-5.066,2.502,-26.123
0.970,0.045,-0.049,-4.822,3.113,-28.687
0.978,0.048,-0.075,-3.479,3.418,-31.006
0.978,0.012,-0.078,-1.404,3.723,-31.921
0.979,-0.019,-0.076,-1.953,2.441,-32.898
0.977,-0.051,-0.063,-2.625,1.038,-34.058
0.965,-0.086,-0.046,-1.465,0.977,-33.508
0.971,-0.103,-0.026,-0.488,2.197,-31.311
0.965,-0.099,-0.032,0.366,3.601,-28.259
0.959,-0.048,-0.068,0.305,4.883,-25.024
0.972,0.012,-0.088,-2.502,8.240,-21.179
0.942,0.073,-0.130,-9.033,12.817,-18.127
0.944,0.145,-0.174,-18.616,14.038,-13.123
0.960,0.171,-0.208,-25.452,11.963,-7.812
0.968,0.161,-0.208,-28.748,9.033,-6.104
0.964,0.125,-0.172,-26.062,4.883,-7.996
0.981,0.079,-0.131,-16.663,0.793,-11.841
0.978,0.057,-0.106,-7.446,-1.526,-16.296
0.972,0.026,-0.081,-4.700,-1.709,-17.334
0.976,0.007,-0.078,-5.310,-0.549,-15.137
0.977,-0.012,-0.097,-6.470,2.258,-12.878
0.969,-0.019,-0.130,-6.348,4.822,-11.841
0.974,-0.013,-0.154,-5.249,5.493,-11.292
0.984,-0.017,-0.159,-3.052,4.456,-11.597
0.987,-0.038,-0.156,-1.038,2.930,-11.169
0.981,-0.060,-0.143,-0.366,0.916,-10.071
0.990,-0.073,-0.113,0.488,-0.793,-7.935
0.986,-0.072,-0.102,3.540,-2.014,-5.615
0.990,-0.050,-0.095,5.249,-2.319,-3.235
1.000,-0.000,-0.099,5.432,-2.686,-0.671

0.893,1.815,-0.161,23.132,9.766,-17.395
0.873,1.867,-0.241,16.785,11.292,-32.349
0.856,1.887,-0.316,0.488,12.268,-43.030
0.821,1.911,-0.377,-20.935,8.667,-51.636
0.793,1.939,-0.381,-44.861,0.977,-62.317
0.747,1.934,-0.345,-67.993,-10.132,-78.125
0.697,1.860,-0.218,-86.243,-25.879,-99.304
0.635,1.714,-0.031,-101.318,-41.077,-123.962
0.590,1.540,0.206,-113.831,-52.673,-150.330
0.630,1.275,0.482,-126.282,-57.007,-180.237
0.576,0.880,0.755,-137.573,-52.002,-216.003
0.482,0.408,1.006,-140.137,-38.513,-255.249
0.395,-0.106,1.216,-138.123,-18.005,-286.255
0.253,-0.762,1.295,-128.784,3.967,-309.448
0.107,-1.431,1.257,-102.600,23.560,-325.867
0.008,-2.004,1.127,-65.369,37.476,-323.425
-0.032,-2.451,0.959,-44.556,45.349,-295.715
0.021,-2.802,0.706,-51.453,53.040,-246.277
0.042,-3.002,0.417,-70.251,60.181,-185.608
0.135,-3.036,0.254,-87.708,62.195,-124.878
0.223,-2.996,0.148,-93.323,56.519,-73.730
0.313,-2.860,0.118,-78.308,44.617,-36.011
0.423,-2.629,0.139,-53.589,30.579,-5.310
0.513,-2.328,0.173,-33.813,18.555,22.278
0.587,-2.017,0.161,-25.513,11.475,45.959
0.653,-1.739,0.120,-20.508,9.277,61.096
0.706,-1.536,0.072,-7.568,7.324,62.927
0.728,-1.422,0.075,15.686,2.136,52.734
0.733,-1.366,0.105,42.664,-4.089,37.537
0.748,-1.357,0.139,63.965,-9.644,27.283
0.749,-1.363,0.150,73.730,-11.902,26.733
0.720,-1.356,0.121,72.327,-11.047,36.011
0.717,-1.332,0.092,65.857,-8.911,51.880
0.729,-1.266,0.097,60.730,-7.324,69.519
0.736,-1.168,0.111,60.120,-9.216,85.510
0.746,-1.057,0.175,64.880,-13.245,97.900
0.752,-0.953,0.262,71.716,-18.860,106.873
0.748,-0.882,0.344,80.566,-23.071,110.168
0.764,-0.834,0.455,94.543,-24.597,109.070
0.758,-0.791,0.513,112.305,-26.855,105.530
0.763,-0.772,0.537,126.953,-25.513,103.699
0.734,-0.770,0.514,132.812,-24.048,107.727
0.702,-0.740,0.487,132.935,-22.949,119.019
0.671,-0.653,0.449,128.723,-22.888,135.681
0.649,-0.513,0.407,122.864,-24.475,156.555
0.617,-0.329,0.383,116.821,-26.733,178.162
0.579,-0.114,0.357,106.506,-28.442,200.500
0.558,0.124,0.312,93.445,-29.907,220.703
0.556,0.379,0.247,84.717,-32.654,233.154
0.573,0.644,0.228,85.510,-37.842,235.657
0.628,0.897,0.264,88.989,-40.710,230.042
0.712,1.194,0.250,84.473,-38.330,219.666
0.797,1.520,0.259,81.238,-32.776,202.087
0.854,1.676,0.288,85.754,-24.231,176.636
0.883,1.720,0.322,82.520,-12.756,150.024
0.847,1.699,0.245,65.002,0.732,128.784
0.800,1.623,0.100,42.358,13.489,114.685
0.780,1.527,-0.046,20.569,23.376,107.483
0.767,1.482,-0.187,0.122,26.917,103.210
0.788,1.492,-0.255,-16.785,25.208,98.022
0.837,1.507,-0.283,-27.344,19.592,87.646
0.865,1.506,-0.284,-27.222,11.292,67.139
0.889,1.429,-0.233,-17.212,1.099,41.138
0.901,1.323,-0.168,-8.301,-6.042,15.808
0.895,1.160,-0.115,-4.211,-10.437,-5.066
0.894,0.983,-0.069,-2.380,-11.902,-21.301
0.901,0.796,-0.030,-0.671,-10.925,-33.020
0.923,0.638,0.004,-0.916,-10.010,-40.710
0.948,0.499,0.050,-0.916,-10.315,-45.532
0.980,0.382,0.106,0.610,-9.888,-48.157
1.003,0.270,0.147,2.869,-9.216,-49.866
1.020,0.171,0.173,4.700,-7.446,-49.683
1.021,0.080,0.186,6.165,-4.822,-47.180
1.013,0.014,0.194,6.531,-2.869,-42.725
1.000,-0.025,0.198,5.310,-1.038,-35.950
0.989,-0.020,0.203,2.197,1.526,-27.100
0.995,0.027,0.187,-2.441,4.028,-17.578
1.001,0.084,0.152,-7.996,6.836,-9.705
1.000,0.135,0.108,-13.855,8.911,-4.761
0.995,0.165,0.083,-15.442,9.033,-3.540
0.999,0.186,0.076,-13.428,7.019,-5.920
0.996,0.195,0.068,-10.437,4.822,-9.460
0.990,0.174,0.079,-7.019,2.136,-13.306
0.970,0.172,0.069,-3.967,-1.343,-17.273
0.954,0.159,0.052,-1.770,-1.343,-19.470
0.947,0.152,0.034,-1.770,0.061,-19.836
0.938,0.133,0.014,-4.700,0.000,-18.677
0.943,0.119,0.006,-8.911,-1.526,-16.418
0.953,0.092,0.026,-10.498,-3.662,-16.052
0.966,0.052,0.061,-7.080,-6.348,-17.700
0.967,0.016,0.098,-2.441,-9.155,-19.592
0.973,-0.014,0.134,1.892,-12.634,-20.325
0.967,-0.027,0.155,5.554,-14.465,-19.958
0.962,-0.017,0.161,7.446,-13.672,-17.517
0.950,0.004,0.141,6.409,-11.780,-12.695
0.937,0.044,0.103,2.197,-8.545,-6.470
0.937,0.104,0.054,-5.005,-5.737,0.244
0.942,0.163,0.019,-12.329,-4.395,5.981
0.953,0.201,0.015,-16.235,-5.249,7.874
0.966,0.213,0.042,-16.235,-6.775,7.202
0.967,0.198,0.087,-12.878,-8.423,4.272
0.978,0.191,0.130,-8.789,-9.216,1.160
0.984,0.192,0.146,-5.127,-8.850,-1.465
0.983,0.172,0.145,-0.977,-7.446,-4.150
0.976,0.151,0.132,1.953,-5.981,-5.920
0.976,0.138,0.121,3.113,-4.822,-5.798
0.983,0.134,0.121,3.723,-4.272,-5.066
0.991,0.128,0.126,3.296,-3.540,-3.540
0.998,0.120,0.127,1.282,-2.563,-1.953
1.002,0.110,0.123,-1.282,-1.648,-0.122
1.000,0.104,0.119,-2.991,-1.404,1.526
0.999,0.113,0.117,-3.174,-1.526,3.174
0.999,0.133,0.120,-2.502,-1.587,4.272
0.999,0.152,0.120,-2.075,-1.221,5.371
0.995,0.182,0.107,-2.197,-0.610,6.042
0.999,0.206,0.095,-1.587,0.122,5.737
1.002,0.216,0.086,-1.587,0.671,4.517
1.000,0.211,0.084,-1.648,0.366,2.808
1.000,0.189,0.100,-0.305,-0.549,0.244

0.984,1.481,-0.247,14.038,-1.343,-5.371
0.945,1.555,-0.338,-2.441,2.014,-16.663
0.897,1.567,-0.408,-23.437,1.099,-25.635
0.854,1.569,-0.438,-41.626,-3.540,-36.438
0.816,1.575,-0.422,-56.091,-12.817,-49.561
0.809,1.585,-0.365,-67.078,-24.536,-63.660
0.809,1.537,-0.267,-77.332,-35.461,-78.857
0.790,1.446,-0.164,-90.027,-42.664,-94.910
0.778,1.328,-0.051,-101.318,-48.218,-111.694
0.787,1.137,0.111,-110.168,-50.720,-129.883
0.712,0.786,0.295,-121.643,-48.889,-154.724
0.573,0.238,0.519,-122.681,-47.729,-188.538
0.506,-0.498,0.795,-100.891,-45.776,-218.872
0.428,-1.194,1.031,-63.538,-40.100,-239.929
0.409,-1.751,1.148,-31.616,-29.297,-245.361
0.415,-2.254,1.081,-24.048,-12.756,-227.478
0.375,-2.653,0.916,-38.391,6.409,-188.599
0.381,-2.915,0.757,-61.279,23.743,-137.024
0.389,-3.110,0.601,-74.463,33.752,-89.661
0.391,-3.254,0.478,-65.186,33.569,-53.467
0.367,-3.317,0.397,-35.645,25.146,-22.156
0.392,-3.229,0.373,-1.221,14.465,9.949
0.416,-2.977,0.324,16.541,6.653,48.340
0.452,-2.614,0.233,14.954,3.906,91.187
0.522,-2.149,0.161,11.169,0.977,128.174
0.611,-1.653,0.109,14.221,-2.441,151.733
0.706,-1.187,0.091,21.973,-7.202,160.583
0.813,-0.821,0.123,33.508,-11.902,155.640
0.901,-0.588,0.196,50.354,-15.930,137.878
0.928,-0.490,0.310,73.303,-19.531,111.511
0.932,-0.545,0.469,98.816,-20.996,83.862
0.905,-0.687,0.604,122.253,-19.714,61.523
0.844,-0.809,0.635,142.395,-15.320,48.035
0.802,-0.900,0.628,156.982,-9.155,45.105
0.740,-0.936,0.570,160.522,-5.005,53.528
0.695,-0.925,0.555,153.809,-2.502,73.242
0.678,-0.799,0.600,138.611,-2.808,100.647
0.662,-0.583,0.657,120.300,-4.028,128.906
0.664,-0.325,0.706,104.492,-5.066,153.503
0.666,-0.028,0.707,90.515,-3.418,173.889
0.631,0.252,0.678,83.130,2.014,187.805
0.599,0.568,0.596,79.529,9.949,196.228
0.607,0.915,0.448,82.581,17.151,197.571
0.613,1.190,0.349,91.736,23.254,188.965
0.603,1.358,0.291,104.858,26.794,172.363
0.621,1.462,0.239,110.962,29.602,156.738
0.636,1.570,0.135,102.539,34.180,147.339
0.628,1.666,0.004,83.191,38.452,142.578
0.679,1.796,-0.128,58.167,43.457,139.771
0.730,1.908,-0.283,39.001,46.265,131.348
0.753,1.930,-0.413,29.053,46.570,114.868
0.755,1.883,-0.501,20.386,43.335,94.543
0.768,1.818,-0.528,13.245,34.119,72.388
0.802,1.727,-0.512,11.230,22.400,49.561
0.834,1.612,-0.438,12.390,11.719,29.053
0.894,1.496,-0.349,10.254,3.540,12.085
0.932,1.354,-0.297,2.747,-0.793,-1.343
0.953,1.202,-0.254,-6.104,-2.930,-12.207
0.978,1.037,-0.209,-15.259,-5.737,-21.423
1.010,0.878,-0.154,-23.132,-9.216,-29.907
1.036,0.710,-0.093,-25.696,-13.000,-38.391
1.052,0.544,-0.009,-22.705,-17.273,-47.546
1.070,0.366,0.097,-15.564,-20.447,-56.519
1.078,0.198,0.193,-7.141,-20.386,-62.866
1.070,0.042,0.272,0.854,-16.357,-65.613
1.060,-0.073,0.298,6.531,-10.132,-63.049
1.037,-0.142,0.276,6.470,-2.808,-54.138
1.021,-0.135,0.202,2.075,4.517,-42.725
1.008,-0.077,0.105,-4.333,10.254,-30.151
0.985,-0.002,0.019,-13.428,13.367,-18.066
0.963,0.087,-0.034,-23.193,14.099,-8.789
0.946,0.184,-0.063,-30.212,12.146,-3.967
0.956,0.245,-0.056,-34.302,9.888,-3.113
0.953,0.240,-0.027,-33.630,7.141,-7.263
0.949,0.190,0.028,-26.367,4.089,-14.832
0.941,0.134,0.073,-13.733,0.610,-23.682
0.946,0.090,0.109,-2.136,-0.122,-30.579
0.913,0.042,0.111,5.371,0.916,-34.119
0.933,0.020,0.075,6.958,3.479,-33.997
0.899,0.019,0.002,4.211,2.502,-30.212
0.885,0.060,-0.058,-1.587,0.244,-23.437
0.895,0.114,-0.092,-10.193,2.380,-14.404
0.928,0.156,-0.089,-21.790,4.395,-6.958
0.954,0.146,-0.043,-27.893,1.526,-5.005
0.959,0.101,0.020,-24.475,-4.211,-7.751
0.971,0.065,0.084,-15.869,-8.667,-12.756
0.974,0.016,0.131,-6.226,-9.705,-16.785
0.980,-0.018,0.158,0.732,-8.423,-18.799
0.976,-0.033,0.146,6.226,-6.287,-18.738
0.970,-0.027,0.095,8.789,-3.601,-16.663
0.963,-0.015,0.021,6.775,-1.465,-11.841
0.949,0.003,-0.043,1.587,0.366,-6.470
0.966,0.023,-0.060,-3.540,1.465,-2.075
0.978,0.042,-0.052,-7.996,0.122,1.770
0.993,0.056,-0.018,-8.911,-1.770,3.601
1.000,0.069,0.016,-7.019,-3.601,4.028
1.001,0.088,0.038,-5.859,-3.906,4.761
1.000,0.113,0.043,-5.737,-2.991,5.676
0.998,0.140,0.043,-5.615,-1.648,6.775
0.999,0.174,0.032,-6.226,0.061,7.568
0.997,0.203,0.013,-6.958,1.160,7.385
0.999,0.211,-0.002,-7.690,1.526,6.226
0.999,0.207,-0.012,-7.507,1.282,3.906
1.001,0.182,-0.004,-5.371,0.122,0.549
1.001,0.142,0.012,-3.113,-0.793,-2.441
1.000,0.106,0.021,-1.465,-1.343,-4.333
0.989,0.071,0.016,-0.183,-1.221,-4.761
0.983,0.048,0.006,1.465,-1.343,-3.967
0.978,0.051,-0.003,1.892,-1.282,-2.075
0.976,0.067,-0.000,0.000,-1.038,1.099
0.982,0.096,0.009,-2.747,-0.916,4.883
0.987,0.134,0.009,-4.333,-0.122,7.202
1.000,0.172,0.012,-4.578,0.549,7.996
1.006,0.193,0.009,-4.883,0.793,7.263
1.003,0.195,0.007,-5.127,0.732,5.554
1.001,0.194,0.014,-4.822,0.244,3.235
0.997,0.197,0.017,-3.357,-0.305,0.732
0.993,0.193,0.015,-1.160,-0.549,-1.526
0.988,0.190,0.005,-1.099,-0.854,-2.441

0.950,1.377,-0.279,-56.763,-10.437,-31.799
0.956,1.385,-0.266,-67.993,-8.972,-40.771
0.946,1.364,-0.263,-79.285,-8.057,-50.415
0.929,1.357,-0.254,-88.623,-7.507,-59.570
0.920,1.356,-0.241,-93.140,-8.667,-69.702
0.899,1.343,-0.218,-93.872,-11.902,-81.787
0.879,1.300,-0.154,-96.313,-15.747,-94.849
0.862,1.240,-0.072,-102.966,-18.738,-107.117
0.871,1.156,0.008,-114.685,-21.973,-119.568
0.845,1.003,0.121,-127.197,-24.048,-134.644
0.814,0.846,0.244,-132.263,-27.344,-155.762
0.747,0.585,0.374,-125.732,-31.799,-180.176
0.634,0.259,0.558,-109.497,-33.508,-203.430
0.592,0.010,0.722,-88.440,-28.076,-221.252
0.494,-0.250,0.800,-69.092,-18.005,-231.018
0.427,-0.468,0.814,-61.096,-5.371,-232.056
0.363,-0.625,0.775,-65.918,4.822,-222.961
0.378,-0.750,0.718,-82.581,14.404,-207.520
0.337,-0.939,0.636,-101.135,24.109,-194.397
0.279,-1.190,0.582,-104.004,29.785,-186.523
0.251,-1.444,0.564,-90.881,32.532,-183.655
0.198,-1.679,0.512,-65.186,32.349,-180.176
0.169,-1.843,0.431,-37.598,30.518,-169.495
0.161,-1.896,0.323,-25.879,29.358,-147.949
0.162,-1.919,0.190,-36.987,30.457,-117.554
0.156,-1.948,0.058,-56.580,31.860,-84.229
0.171,-1.948,-0.031,-66.467,29.541,-56.946
0.185,-1.955,-0.061,-61.768,22.644,-40.222
0.209,-2.042,-0.037,-43.945,11.902,-34.363
0.223,-2.190,0.010,-18.433,2.197,-33.386
0.223,-2.348,0.055,8.179,-6.165,-31.006
0.208,-2.482,0.069,31.677,-13.245,-23.743
0.186,-2.565,0.056,48.706,-19.043,-7.263
0.191,-2.560,0.023,55.908,-22.583,20.508
0.203,-2.413,-0.023,53.772,-22.888,56.458
0.252,-2.167,-0.050,47.424,-24.109,93.750
0.285,-1.930,-0.061,41.138,-27.222,124.451
0.328,-1.687,-0.032,39.673,-33.386,146.851
0.358,-1.469,0.033,45.593,-39.429,161.072
0.397,-1.289,0.121,60.181,-45.715,166.931
0.427,-1.139,0.192,80.322,-52.368,166.016
0.445,-1.026,0.257,102.600,-59.265,162.292
0.470,-0.915,0.318,123.291,-65.857,159.180
0.482,-0.782,0.384,139.587,-71.838,158.752
0.503,-0.624,0.467,152.466,-77.026,161.377
0.547,-0.447,0.575,158.630,-80.078,168.274
0.581,-0.261,0.674,154.297,-79.407,177.124
0.589,-0.112,0.736,145.142,-75.012,186.768
0.599,0.049,0.754,135.376,-67.871,195.679
0.599,0.238,0.749,127.686,-57.068,204.895
0.606,0.454,0.695,122.864,-45.410,212.952
0.611,0.676,0.622,118.408,-35.828,218.689
0.640,0.886,0.594,112.305,-29.419,220.398
0.673,1.053,0.585,106.873,-23.804,217.529
0.702,1.229,0.576,102.356,-17.029,212.708
0.746,1.404,0.541,95.825,-9.521,206.665
0.794,1.569,0.448,83.313,-0.610,198.792
0.825,1.740,0.316,66.345,9.644,188.354
0.866,1.906,0.171,50.476,19.592,173.645
0.898,2.043,0.014,39.246,25.269,154.358
0.926,2.109,-0.125,30.823,26.794,130.310
0.940,2.099,-0.227,23.193,23.437,102.783
0.958,2.024,-0.266,17.517,15.503,72.937
0.963,1.912,-0.238,15.015,5.554,44.250
0.985,1.759,-0.151,17.395,-3.113,17.273
1.002,1.585,-0.060,22.156,-7.507,-6.042
1.031,1.417,-0.003,22.949,-6.897,-25.330
1.036,1.221,-0.019,18.372,-3.662,-40.161
1.018,1.018,-0.055,11.841,-0.183,-51.331
1.011,0.828,-0.088,4.883,1.953,-58.533
1.014,0.645,-0.107,-1.221,2.197,-62.256
1.019,0.474,-0.096,-5.737,-0.061,-63.232
1.025,0.325,-0.065,-10.437,-2.075,-61.707
1.040,0.198,-0.015,-14.526,-3.906,-58.594
1.050,0.088,0.047,-14.709,-6.104,-55.786
1.064,0.016,0.118,-10.071,-7.202,-54.382
1.081,-0.041,0.175,-4.333,-6.470,-52.979
1.080,-0.093,0.207,-1.404,-3.906,-50.415
1.062,-0.123,0.205,-2.075,0.671,-46.204
1.042,-0.123,0.173,-4.333,5.981,-39.856
1.020,-0.115,0.130,-7.812,9.460,-32.593
1.003,-0.086,0.089,-12.634,10.376,-25.452
0.993,-0.040,0.055,-16.785,9.338,-19.348
0.980,0.002,0.037,-20.447,7.935,-14.954
0.986,0.033,0.049,-22.583,6.531,-12.329
1.004,0.035,0.068,-21.729,4.700,-12.451
0.984,0.008,0.085,-17.212,2.808,-14.954
0.986,-0.019,0.146,-10.010,1.587,-17.883
0.957,-0.030,0.139,-3.906,-1.282,-19.592
0.949,-0.023,0.124,-1.831,2.319,-17.944
0.942,-0.023,0.109,-4.028,8.606,-12.512
0.944,-0.003,0.083,-8.423,13.000,-6.409
0.931,0.029,0.040,-12.146,12.634,-2.380
0.933,0.061,-0.003,-13.611,10.254,-0.732
0.932,0.075,-0.023,-13.184,7.935,0.000
0.933,0.081,-0.026,-11.780,4.822,-0.671
0.935,0.081,-0.017,-8.118,1.587,-2.014
0.937,0.064,-0.001,-3.845,-1.953,-2.869
0.939,0.051,0.023,-1.892,-4.639,-3.479
0.942,0.039,0.055,-1.526,-5.310,-3.174
0.945,0.031,0.076,-1.465,-3.418,-1.892
0.950,0.033,0.072,-1.465,-1.038,0.122
0.954,0.053,0.042,-2.075,1.099,2.747
0.957,0.087,0.009,-3.662,2.075,5.249
0.963,0.104,0.000,-5.310,1.831,7.141
0.969,0.122,0.007,-5.676,0.732,7.751
0.978,0.135,0.024,-4.639,-0.183,7.202
0.982,0.140,0.041,-3.296,-1.282,6.287
0.984,0.146,0.047,-2.380,-2.075,5.249
0.993,0.152,0.049,-1.831,-2.136,4.272
0.996,0.140,0.052,-0.244,-1.648,3.174
0.991,0.122,0.044,2.319,-0.854,1.648
0.989,0.112,0.037,4.211,0.000,1.221
0.981,0.103,0.023,3.479,0.122,2.197
0.972,0.108,0.007,0.977,0.122,4.089
0.979,0.128,0.012,-1.343,-0.305,5.920
0.987,0.148,0.028,-1.404,-1.160,6.287
0.992,0.151,0.042,-0.916,-0.977,5.737
0.993,0.155,0.037,-1.099,-0.549,4.944

0.487,-1.826,0.515,-76.965,8.972,-156.616
0.505,-2.093,0.488,-63.599,13.672,-137.817
0.518,-2.325,0.445,-46.387,14.648,-117.126
0.523,-2.467,0.399,-33.264,12.573,-89.111
0.540,-2.311,0.315,-31.677,9.094,-53.406
0.556,-2.162,0.244,-34.119,8.118,-20.386
0.581,-2.025,0.208,-41.260,10.803,11.902
0.595,-1.839,0.189,-47.668,11.902,37.354
0.604,-1.716,0.179,-37.170,8.179,48.767
0.610,-1.609,0.189,-10.620,3.357,50.293
0.603,-1.508,0.185,22.583,-3.052,44.739
0.601,-1.455,0.179,55.542,-9.216,36.987
0.601,-1.437,0.183,77.332,-13.245,33.936
0.584,-1.424,0.163,85.022,-15.198,37.109
0.588,-1.416,0.158,87.708,-15.625,45.715
0.594,-1.376,0.149,91.431,-16.541,56.641
0.610,-1.300,0.145,94.055,-18.127,68.787
0.616,-1.210,0.140,95.032,-19.531,81.604
0.628,-1.105,0.149,95.581,-21.912,93.994
0.652,-0.996,0.171,96.680,-24.048,105.164
0.678,-0.901,0.192,98.999,-25.391,114.929
0.683,-0.801,0.227,101.624,-27.954,123.413
0.697,-0.678,0.291,104.492,-30.945,132.324
0.713,-0.544,0.367,110.962,-34.058,141.113
0.718,-0.397,0.449,119.507,-36.499,148.010
0.722,-0.223,0.539,124.756,-36.743,154.480
0.720,-0.037,0.612,125.977,-32.837,161.987
0.727,0.154,0.637,121.094,-23.376,169.983
0.728,0.364,0.573,112.854,-11.780,176.575
0.728,0.545,0.470,107.666,-0.854,179.138
0.754,0.706,0.350,103.577,7.874,176.697
0.767,0.824,0.222,99.854,13.794,169.983
0.729,0.859,0.124,97.717,17.517,161.316
0.713,0.948,0.102,95.032,17.883,154.236
0.729,1.068,0.118,95.215,14.893,148.499
0.769,1.167,0.130,99.487,12.512,141.907
0.774,1.276,0.113,102.112,12.939,133.362
0.786,1.393,0.052,92.407,15.686,126.465
0.823,1.491,-0.044,68.298,22.095,122.253
0.800,1.532,-0.208,38.635,29.419,117.188
0.798,1.549,-0.350,10.559,34.973,110.413
0.821,1.598,-0.448,-7.568,33.875,101.990
0.838,1.630,-0.489,-9.277,25.269,84.778
0.868,1.617,-0.473,-1.587,12.146,60.181
0.864,1.535,-0.422,9.460,-1.160,32.837
0.895,1.427,-0.347,17.029,-12.085,8.972
0.911,1.283,-0.261,20.081,-20.142,-9.644
0.934,1.122,-0.193,20.081,-23.376,-24.597
0.967,0.945,-0.139,17.822,-21.912,-35.461
0.992,0.779,-0.108,11.902,-18.677,-42.969
1.007,0.614,-0.075,4.272,-15.686,-47.058
1.022,0.460,-0.041,-0.671,-13.550,-48.950
1.032,0.319,0.008,-1.526,-12.085,-49.622
1.029,0.194,0.058,-0.610,-10.498,-48.157
1.020,0.100,0.086,1.465,-8.118,-44.434
1.009,0.053,0.088,2.686,-4.944,-38.513
1.006,0.055,0.064,-0.305,-2.380,-30.457
1.005,0.075,0.036,-6.409,-0.061,-21.301
1.004,0.080,0.015,-12.451,2.136,-14.343
1.004,0.089,0.008,-15.625,2.258,-10.437
1.005,0.102,0.014,-13.733,0.793,-9.460
1.001,0.123,0.024,-8.850,-1.221,-10.742
1.000,0.132,0.035,-5.188,-2.563,-11.963
0.976,0.140,0.021,-4.700,-4.272,-12.573
0.969,0.155,0.009,-5.798,-3.052,-11.230
0.970,0.168,0.002,-7.935,-2.075,-9.033
0.975,0.171,0.010,-11.169,-2.502,-7.629
0.978,0.154,0.025,-13.794,-4.395,-7.446
0.977,0.119,0.067,-11.719,-7.202,-9.155
0.996,0.088,0.125,-5.676,-8.240,-11.292
1.000,0.062,0.148,-1.160,-7.141,-12.024
1.000,0.054,0.141,-0.183,-5.371,-10.986
0.983,0.056,0.105,-1.831,-4.211,-9.094
0.972,0.075,0.058,-3.357,-3.113,-5.920
0.955,0.110,0.007,-4.639,-2.319,-2.258
0.944,0.165,-0.037,-6.836,-2.014,0.916
0.942,0.229,-0.068,-11.108,-2.625,4.089
0.945,0.259,-0.076,-15.564,-3.479,6.653
0.965,0.278,-0.038,-18.860,-4.395,7.263
0.979,0.278,-0.002,-16.785,-5.066,4.822
0.986,0.263,0.023,-9.583,-5.432,-0.427
0.984,0.243,0.031,-2.319,-5.432,-6.165
0.977,0.201,0.022,2.930,-4.639,-11.047
0.966,0.163,0.005,5.310,-3.662,-13.184
0.961,0.139,-0.009,5.981,-2.869,-12.817
0.970,0.138,-0.018,5.005,-1.953,-9.949
0.975,0.147,-0.027,0.793,-1.099,-5.493
0.978,0.157,-0.037,-4.272,-0.671,-1.099
0.983,0.174,-0.034,-8.057,-1.282,2.380
0.999,0.196,-0.014,-10.315,-2.075,4.578
1.003,0.205,0.010,-10.010,-2.502,4.639
1.009,0.216,0.031,-7.568,-2.502,3.357
1.010,0.225,0.028,-4.944,-2.075,1.404
1.010,0.229,0.015,-3.601,-1.831,-0.610
1.001,0.211,0.001,-1.953,-2.075,-2.747
1.000,0.182,0.007,0.916,-2.563,-5.310
1.001,0.155,0.022,3.723,-3.052,-6.958
0.997,0.146,0.033,4.639,-2.808,-6.653
0.992,0.148,0.024,2.197,-1.770,-4.395
0.992,0.156,0.001,-1.953,-0.366,-1.526
0.985,0.165,-0.022,-4.944,0.366,0.732
0.986,0.175,-0.024,-5.554,-0.488,1.343
0.995,0.179,0.002,-3.723,-1.160,0.183
0.996,0.174,0.028,-0.488,-0.610,-1.099
0.993,0.171,0.037,2.258,0.244,-1.953
0.984,0.172,0.027,2.441,0.854,-2.136
0.974,0.174,0.012,1.099,0.977,-1.770
0.968,0.178,0.005,-0.305,0.793,-1.343
0.968,0.181,0.014,-0.916,-0.122,-1.282
0.974,0.189,0.027,-1.099,-0.610,-1.221
0.974,0.195,0.030,-0.916,-0.610,-1.587
0.973,0.197,0.015,-1.282,-0.305,-1.892
0.969,0.195,-0.005,-1.587,-0.427,-2.197
0.965,0.189,-0.011,-1.038,-1.343,-2.563
0.967,0.185,-0.003,0.000,-2.197,-2.747
0.971,0.185,0.006,-0.244,-2.502,-2.380
0.969,0.180,0.012,-1.526,-2.502,-1.831
0.975,0.173,0.024,-1.892,-2.258,-1.099
0.976,0.167,0.033,-0.732,-2.075,-1.160

0.610,1.767,-0.289,-103.882,29.846,-10.681
0.554,1.861,-0.334,-112.732,24.719,-28.259
0.493,1.878,-0.340,-118.896,20.996,-50.354
0.390,1.789,-0.326,-121.338,17.151,-77.942
0.294,1.633,-0.276,-122.742,8.911,-108.337
0.251,1.404,-0.183,-126.160,-2.014,-138.489
0.214,1.098,-0.072,-129.395,-12.878,-169.678
0.100,0.713,0.069,-122.253,-22.949,-197.998
0.026,0.282,0.185,-97.595,-31.372,-226.990
0.035,-0.079,0.303,-66.528,-37.415,-249.634
0.047,-0.344,0.383,-43.030,-39.612,-257.751
0.098,-0.590,0.467,-38.635,-36.377,-252.380
0.148,-0.922,0.525,-56.702,-28.259,-237.122
0.146,-1.271,0.573,-83.801,-19.836,-213.745
0.207,-1.557,0.650,-107.544,-12.512,-185.669
0.276,-1.786,0.683,-115.784,-4.883,-159.363
0.353,-1.979,0.670,-100.464,1.221,-139.465
0.440,-2.104,0.619,-75.562,3.662,-122.620
0.500,-2.106,0.518,-59.509,7.019,-100.525
0.532,-2.008,0.382,-59.448,12.817,-70.618
0.574,-1.820,0.241,-72.266,19.226,-35.156
0.662,-1.577,0.115,-89.905,24.414,-1.160
0.750,-1.383,0.025,-102.600,25.269,23.132
0.863,-1.220,0.005,-102.600,22.217,33.630
0.919,-1.201,0.020,-78.552,17.212,24.780
0.910,-1.327,0.061,-29.846,9.033,0.610
0.894,-1.523,0.119,25.330,-0.427,-24.841
0.891,-1.693,0.146,72.144,-7.263,-42.236
0.853,-1.883,0.164,105.896,-8.362,-48.645
0.779,-2.003,0.131,119.629,-6.470,-38.818
0.739,-1.988,0.084,108.459,-2.441,-9.705
0.746,-1.865,0.022,79.895,4.883,30.396
0.729,-1.696,-0.039,50.537,14.160,69.214
0.688,-1.550,-0.074,36.926,17.090,95.947
0.693,-1.385,-0.066,38.574,14.282,110.535
0.671,-1.215,-0.048,50.903,8.240,115.417
0.665,-1.096,-0.008,73.975,1.282,113.037
0.654,-0.996,0.036,99.121,-5.493,105.896
0.623,-0.912,0.070,116.821,-11.353,101.318
0.585,-0.852,0.096,127.747,-16.052,99.731
0.542,-0.800,0.119,135.071,-18.738,102.234
0.492,-0.725,0.134,138.184,-21.118,110.229
0.459,-0.596,0.157,136.169,-23.682,121.826
0.444,-0.444,0.180,129.639,-25.330,135.986
0.431,-0.278,0.198,119.202,-25.696,153.625
0.440,-0.091,0.230,107.422,-25.452,171.875
0.478,0.154,0.262,98.633,-24.353,188.232
0.540,0.415,0.289,95.093,-21.912,197.876
0.583,0.652,0.282,95.398,-17.578,198.730
0.608,0.846,0.248,98.083,-12.939,192.627
0.639,1.046,0.189,99.304,-8.728,183.289
0.693,1.248,0.121,96.802,-5.859,172.791
0.752,1.425,0.077,92.712,-3.296,160.156
0.790,1.571,0.048,90.210,-1.709,143.738
0.820,1.710,-0.026,85.022,0.244,126.831
0.843,1.799,-0.122,73.853,4.944,111.877
0.870,1.828,-0.228,61.279,11.963,95.825
0.874,1.833,-0.341,49.988,16.602,77.698
0.889,1.780,-0.435,42.114,18.921,58.167
0.906,1.666,-0.495,38.818,17.334,36.926
0.951,1.555,-0.505,38.452,11.108,15.869
0.987,1.428,-0.483,38.513,4.211,-2.258
1.009,1.278,-0.451,35.156,-0.549,-17.151
1.015,1.126,-0.422,26.978,-3.418,-28.687
1.002,0.979,-0.411,15.991,-5.066,-35.828
1.025,0.840,-0.351,4.333,-5.798,-39.063
1.022,0.707,-0.313,-5.554,-9.644,-41.260
1.046,0.575,-0.236,-12.512,-10.193,-43.030
1.047,0.428,-0.154,-15.015,-7.568,-43.213
1.063,0.295,-0.086,-12.024,-5.859,-44.128
1.075,0.190,-0.033,-5.798,-5.432,-45.776
1.068,0.110,-0.008,-0.427,-5.188,-46.631
1.042,0.054,-0.011,1.038,-3.540,-45.410
1.024,0.023,-0.029,-2.258,-1.160,-39.734
1.017,0.015,-0.051,-8.362,1.160,-31.982
1.003,0.005,-0.079,-14.343,2.563,-24.780
1.001,0.004,-0.099,-17.029,2.197,-19.897
1.001,0.011,-0.104,-15.442,-0.183,-17.822
1.005,0.016,-0.086,-11.597,-2.625,-18.005
1.003,0.021,-0.068,-7.690,-3.479,-18.738
1.000,0.027,-0.059,-5.615,-2.686,-18.616
0.987,0.036,-0.069,-5.554,-0.183,-16.907
0.974,0.060,-0.111,-7.263,3.113,-13.916
0.965,0.083,-0.157,-10.376,5.188,-11.353
0.969,0.084,-0.181,-12.085,5.554,-10.376
0.973,0.064,-0.184,-10.620,4.761,-11.414
0.978,0.037,-0.172,-6.409,2.808,-13.428
0.988,0.018,-0.150,-3.235,0.244,-14.343
0.986,0.009,-0.133,-2.869,-1.465,-13.062
0.980,0.022,-0.136,-4.150,-2.258,-9.888
0.979,0.046,-0.143,-6.042,-2.319,-6.042
0.975,0.077,-0.161,-7.751,-2.197,-3.113
0.982,0.099,-0.173,-7.996,-2.380,-2.380
0.984,0.101,-0.169,-6.775,-2.869,-3.052
0.987,0.082,-0.151,-4.578,-3.784,-4.578
0.993,0.054,-0.125,-2.258,-5.005,-6.226
1.003,0.044,-0.099,-0.732,-4.944,-6.531
1.001,0.036,-0.095,-0.427,-3.601,-5.615
1.001,0.033,-0.095,0.183,-2.258,-4.333
0.999,0.044,-0.106,0.549,-1.404,-2.808
0.993,0.060,-0.120,0.183,-1.038,-1.282
0.989,0.076,-0.126,-1.038,-1.221,0.854
0.982,0.093,-0.129,-2.808,-1.221,2.686
0.983,0.104,-0.130,-3.296,-1.099,3.845
0.991,0.119,-0.125,-3.052,-1.526,3.845
1.000,0.106,-0.101,-2.136,-2.014,3.357
1.004,0.091,-0.075,-0.610,-2.197,2.136
1.004,0.082,-0.051,2.136,-1.892,0.916
1.003,0.077,-0.043,4.944,-0.427,0.183
0.997,0.089,-0.060,5.066,1.953,1.404
0.989,0.112,-0.089,2.747,4.211,3.845
0.982,0.133,-0.119,-0.305,5.737,6.409
0.979,0.152,-0.143,-2.380,6.165,7.751
0.980,0.167,-0.157,-2.563,5.737,7.690
0.980,0.166,-0.155,-1.221,4.395,6.287
0.983,0.169,-0.152,0.061,2.747,5.310
0.983,0.171,-0.148,0.000,1.282,4.456
0.983,0.173,-0.141,-0.671,0.122,3.784
0.981,0.178,-0.138,-0.427,-0.244,2.808

0.871,1.589,-0.222,-0.488,2.441,-32.715
0.801,1.606,-0.295,-15.381,3.662,-46.875
0.758,1.539,-0.334,-23.132,0.793,-62.317
0.732,1.541,-0.371,-32.288,-5.493,-75.684
0.711,1.537,-0.378,-45.654,-14.160,-87.646
0.674,1.504,-0.331,-62.256,-23.010,-98.633
0.634,1.475,-0.213,-83.191,-31.738,-108.521
0.592,1.401,-0.032,-100.952,-41.138,-120.605
0.554,1.287,0.200,-114.502,-46.570,-135.681
0.539,1.152,0.485,-126.892,-46.631,-152.405
0.612,0.881,0.763,-138.306,-38.086,-172.241
0.617,0.477,0.959,-144.287,-21.179,-196.594
0.521,-0.056,1.070,-133.118,-2.686,-223.145
0.422,-0.707,1.122,-105.347,13.000,-246.643
0.437,-1.332,1.122,-71.167,26.306,-256.470
0.451,-1.811,0.987,-39.001,35.522,-242.493
0.474,-2.012,0.756,-29.602,41.443,-200.989
0.507,-2.016,0.513,-58.105,46.265,-134.644
0.577,-1.909,0.334,-112.854,48.523,-56.213
0.690,-1.700,0.318,-165.100,50.537,7.690
0.794,-1.577,0.345,-185.120,50.964,39.917
0.875,-1.526,0.417,-154.724,42.175,39.612
0.914,-1.496,0.455,-93.201,25.208,18.311
0.944,-1.497,0.419,-38.025,11.292,-0.977
0.950,-1.460,0.326,-10.193,8.179,-5.859
0.949,-1.383,0.197,-9.460,11.414,1.831
0.972,-1.330,0.058,-19.226,14.526,12.695
0.989,-1.301,-0.053,-18.799,12.329,16.541
0.991,-1.277,-0.075,-0.610,1.892,11.353
0.999,-1.270,0.008,20.325,-12.390,4.944
0.990,-1.287,0.113,33.752,-22.766,2.014
0.996,-1.306,0.267,44.556,-26.428,2.991
0.979,-1.324,0.417,56.030,-24.353,8.240
0.956,-1.318,0.499,63.049,-17.517,18.372
0.943,-1.282,0.501,62.683,-6.653,33.997
0.925,-1.220,0.451,57.922,3.174,51.331
0.905,-1.126,0.404,56.458,9.766,65.796
0.881,-1.052,0.379,64.636,11.047,74.158
0.860,-1.014,0.406,78.186,11.230,77.637
0.835,-1.006,0.450,89.844,10.254,80.994
0.805,-0.999,0.458,97.717,8.728,87.341
0.779,-0.950,0.426,103.699,7.751,97.473
0.742,-0.871,0.376,107.117,6.653,112.122
0.691,-0.760,0.348,105.042,5.371,130.493
0.681,-0.597,0.375,97.107,4.761,152.161
0.679,-0.426,0.418,89.417,4.028,171.326
0.657,-0.259,0.485,88.501,3.723,183.594
0.651,-0.099,0.564,92.163,5.554,190.613
0.642,0.059,0.632,95.215,9.216,193.787
0.640,0.263,0.641,104.431,13.000,190.613
0.632,0.474,0.576,125.244,15.503,180.176
0.631,0.651,0.471,140.503,17.639,167.358
0.610,0.806,0.318,136.719,21.545,159.729
0.575,0.921,0.148,118.835,26.001,158.203
0.541,1.030,0.051,96.008,29.358,160.583
0.561,1.145,-0.018,74.890,29.846,162.170
0.551,1.241,-0.069,65.247,26.062,157.715
0.592,1.385,-0.090,60.364,19.958,150.146
0.641,1.601,-0.116,54.993,14.282,139.709
0.704,1.786,-0.136,51.880,10.986,121.155
0.768,1.907,-0.168,49.683,10.315,94.727
0.797,1.900,-0.214,49.927,8.789,61.646
0.804,1.776,-0.264,50.171,7.141,28.931
0.786,1.599,-0.293,48.401,2.808,2.380
0.790,1.440,-0.275,44.189,-3.723,-15.686
0.791,1.293,-0.229,34.607,-9.888,-26.489
0.804,1.147,-0.176,17.700,-13.794,-29.846
0.828,1.018,-0.108,-1.892,-16.602,-28.564
0.871,0.922,-0.036,-15.259,-18.250,-27.527
0.912,0.831,0.032,-19.348,-17.761,-29.541
0.950,0.746,0.083,-17.822,-16.296,-34.607
0.973,0.648,0.132,-14.038,-14.404,-42.114
0.983,0.523,0.167,-8.911,-12.390,-49.500
0.982,0.392,0.194,-4.578,-8.301,-55.786
0.969,0.263,0.188,0.061,-4.639,-59.021
0.962,0.167,0.173,3.113,-1.038,-58.044
0.950,0.109,0.140,2.869,2.625,-52.917
0.952,0.078,0.112,0.244,5.066,-45.471
0.953,0.059,0.086,-3.662,6.653,-37.415
0.964,0.049,0.079,-6.897,6.165,-30.212
0.974,0.031,0.096,-7.324,4.761,-25.452
0.974,0.019,0.117,-5.493,3.418,-22.034
0.979,0.022,0.137,-4.150,2.502,-18.982
0.986,0.042,0.148,-3.784,2.625,-15.686
0.975,0.065,0.134,-3.540,4.028,-12.634
0.972,0.100,0.108,-4.761,5.676,-9.521
0.947,0.128,0.072,-7.141,5.737,-6.531
0.930,0.164,0.045,-9.521,5.188,-3.662
0.929,0.210,0.032,-13.672,3.967,-0.732
0.933,0.252,0.024,-19.043,2.136,1.282
0.939,0.249,0.048,-21.179,0.366,0.366
0.974,0.223,0.094,-17.517,-1.709,-3.540
0.963,0.188,0.108,-10.620,-5.981,-9.460
0.966,0.161,0.130,-4.761,-6.042,-14.038
0.971,0.128,0.138,-1.343,-2.686,-15.869
0.971,0.101,0.133,0.061,-0.427,-15.564
0.959,0.097,0.110,-0.305,-0.244,-13.306
0.958,0.109,0.091,-2.563,-0.549,-9.216
0.951,0.148,0.053,-7.507,-0.977,-3.906
0.956,0.186,0.029,-14.404,-1.648,0.671
0.970,0.207,0.031,-17.761,-2.502,2.991
0.978,0.215,0.057,-16.357,-4.272,2.014
0.992,0.216,0.096,-11.658,-5.737,-0.854
0.998,0.209,0.131,-6.042,-5.920,-4.333
0.994,0.192,0.141,-1.892,-4.822,-7.629
0.987,0.180,0.131,0.305,-3.113,-9.399
0.980,0.168,0.113,-0.183,-1.770,-9.399
0.970,0.153,0.091,-1.892,-0.488,-8.301
0.973,0.151,0.075,-3.357,0.610,-6.653
0.982,0.151,0.064,-4.272,1.221,-4.517
0.986,0.146,0.059,-5.554,0.916,-2.808
0.990,0.135,0.060,-6.592,0.427,-2.075
0.990,0.124,0.070,-6.226,-0.061,-1.526
0.990,0.126,0.077,-4.883,-0.488,-1.709
0.987,0.132,0.078,-2.808,-0.977,-2.136
0.987,0.135,0.083,0.122,-0.549,-2.319
0.989,0.143,0.087,1.831,0.122,-2.197
0.989,0.150,0.094,0.977,1.038,-1.099
0.989,0.151,0.094,-1.709,2.319,1.160

0.704,2.099,-0.409,-31.677,13.062,3.723
0.686,2.358,-0.539,-56.091,13.367,-2.441
0.681,2.622,-0.617,-78.430,7.874,-14.832
0.647,2.804,-0.631,-97.839,-4.211,-37.598
0.605,2.834,-0.529,-115.662,-20.874,-71.228
0.557,2.707,-0.282,-133.240,-41.748,-110.413
0.581,2.362,0.083,-147.461,-60.852,-155.518
0.563,1.852,0.460,-156.799,-73.059,-207.520
0.534,1.128,0.866,-156.494,-76.477,-263.733
0.469,0.182,1.297,-133.972,-69.763,-321.472
0.327,-0.802,1.724,-91.980,-49.988,-368.286
0.235,-1.712,1.795,-44.312,-20.752,-389.221
0.203,-2.404,1.658,-9.033,10.559,-379.333
0.180,-2.863,1.290,-3.296,39.429,-336.304
0.161,-2.992,0.824,-34.607,66.833,-259.705
0.158,-2.980,0.352,-100.403,86.365,-165.588
0.257,-2.847,0.046,-168.579,97.839,-78.369
0.346,-2.618,-0.105,-203.674,92.773,-13.306
0.499,-2.339,-0.085,-203.491,76.355,22.461
0.578,-2.129,0.018,-167.908,52.429,30.334
0.616,-2.056,0.141,-106.995,28.137,17.273
0.597,-2.088,0.189,-37.659,9.888,-4.761
0.566,-2.103,0.222,24.597,-1.770,-26.428
0.503,-2.182,0.223,66.711,-6.897,-35.828
0.412,-2.270,0.169,87.585,-9.644,-28.442
0.373,-2.223,0.101,94.543,-10.986,-2.747
0.421,-2.019,0.049,88.257,-12.024,37.048
0.467,-1.759,0.001,68.542,-10.620,80.566
0.497,-1.504,-0.018,43.762,-10.681,118.652
0.531,-1.263,0.017,27.161,-11.658,148.254
0.568,-1.047,0.083,26.062,-14.587,166.565
0.608,-0.857,0.163,36.377,-18.188,174.805
0.629,-0.677,0.230,53.345,-22.339,175.964
0.641,-0.522,0.296,72.998,-26.184,174.133
0.678,-0.365,0.396,89.294,-27.222,172.180
0.695,-0.240,0.491,101.257,-25.330,170.044
0.692,-0.122,0.553,112.610,-21.423,167.969
0.705,0.000,0.575,122.559,-15.137,166.931
0.690,0.113,0.535,125.977,-9.216,167.969
0.665,0.214,0.479,118.408,-3.418,173.523
0.633,0.339,0.395,101.379,2.075,184.326
0.594,0.468,0.309,82.458,8.057,196.411
0.570,0.642,0.245,65.979,13.123,206.360
0.563,0.854,0.179,58.838,17.090,210.022
0.552,1.031,0.114,66.711,17.822,204.407
0.532,1.181,0.043,79.529,17.822,192.505
0.533,1.359,-0.016,83.923,17.761,179.749
0.550,1.566,-0.086,82.153,17.334,166.687
0.608,1.720,-0.156,81.604,18.005,148.926
0.644,1.822,-0.263,72.754,19.287,130.798
0.642,1.866,-0.353,51.392,19.714,115.784
0.661,1.880,-0.425,28.015,16.785,100.586
0.692,1.837,-0.479,14.893,11.169,82.703
0.712,1.757,-0.502,10.254,2.197,63.171
0.767,1.662,-0.464,5.066,-9.705,44.617
0.804,1.523,-0.376,-1.282,-20.569,27.893
0.879,1.434,-0.247,-6.165,-28.198,12.634
0.942,1.332,-0.130,-1.709,-32.715,-5.005
0.995,1.194,-0.037,11.108,-33.142,-25.635
1.020,1.041,0.007,20.874,-31.738,-44.189
1.024,0.874,0.033,24.902,-29.358,-57.251
1.022,0.709,0.064,24.353,-25.879,-64.392
1.023,0.555,0.095,19.775,-21.118,-66.101
1.017,0.433,0.117,14.465,-15.808,-62.805
1.028,0.347,0.137,10.742,-10.620,-56.641
1.039,0.306,0.147,8.972,-5.859,-49.866
1.045,0.278,0.136,6.470,-1.770,-43.823
1.037,0.263,0.120,3.418,2.258,-39.063
1.022,0.247,0.096,3.174,4.578,-36.743
1.002,0.241,0.074,5.310,5.920,-36.377
0.986,0.235,0.047,6.226,6.226,-35.706
0.957,0.234,0.015,4.333,5.249,-34.241
0.933,0.255,-0.016,0.183,4.211,-31.921
0.921,0.278,-0.041,-3.906,2.502,-29.297
0.925,0.292,-0.041,-7.935,0.061,-27.771
0.936,0.281,-0.017,-12.024,-2.380,-27.893
0.943,0.242,0.035,-12.634,-4.456,-29.846
0.951,0.192,0.097,-7.263,-7.385,-34.119
0.953,0.144,0.147,0.977,-8.667,-38.208
0.949,0.108,0.165,9.644,-7.324,-41.321
0.978,0.068,0.186,15.808,-3.540,-41.992
0.941,0.045,0.116,15.564,-3.296,-40.100
0.924,0.029,0.062,12.573,-0.244,-34.912
0.916,0.021,0.024,8.667,4.395,-27.283
0.917,0.022,0.007,2.563,5.920,-18.433
0.926,0.046,0.006,-4.028,2.563,-9.888
0.927,0.079,0.012,-8.240,-1.038,-3.540
0.943,0.118,0.047,-9.705,-2.563,-0.061
0.952,0.157,0.069,-9.277,-3.662,2.502
0.961,0.187,0.080,-7.141,-4.150,2.869
0.956,0.202,0.075,-5.859,-3.723,2.502
0.952,0.207,0.058,-4.944,-2.808,1.770
0.947,0.207,0.035,-3.845,-1.892,0.305
0.946,0.199,0.021,-1.892,-1.709,-1.038
0.945,0.189,0.015,-0.671,-2.197,-1.282
0.942,0.183,0.022,-0.854,-2.441,-0.732
0.944,0.182,0.035,-2.014,-2.625,1.648
0.947,0.201,0.044,-3.845,-2.686,4.883
0.958,0.222,0.053,-5.310,-2.625,7.629
0.960,0.235,0.054,-6.470,-2.319,9.033
0.965,0.239,0.062,-6.653,-1.831,9.399
0.969,0.251,0.069,-4.883,-1.160,8.240
0.973,0.253,0.071,-0.244,-0.610,5.432
0.973,0.246,0.061,4.272,-0.183,2.502
0.972,0.238,0.037,6.287,0.488,0.488
0.963,0.222,0.017,6.531,0.427,0.122
0.961,0.222,0.005,5.310,0.366,1.343
0.963,0.229,0.001,2.747,-0.366,3.662
0.965,0.237,0.002,-0.061,-1.343,5.737
0.967,0.249,0.009,-2.197,-1.648,7.324
0.973,0.268,0.020,-2.563,-2.136,7.812
0.974,0.281,0.033,-2.075,-2.441,7.141
0.974,0.277,0.045,-2.441,-2.258,6.592
0.974,0.271,0.055,-2.991,-2.014,5.859
0.980,0.269,0.066,-1.099,-1.343,3.967
0.982,0.261,0.076,3.418,-1.038,0.854
0.984,0.251,0.073,7.324,-0.671,-1.587
0.976,0.244,0.060,7.690,-0.427,-2.136
0.968,0.240,0.046,5.493,-0.305,-0.549

0.498,2.529,-0.652,-79.224,42.664,101.501
0.531,2.839,-0.969,-95.276,49.988,76.843
0.532,2.963,-1.251,-101.257,46.753,38.391
0.480,2.887,-1.345,-99.609,24.231,-11.475
0.437,2.681,-1.250,-100.952,-12.573,-62.683
0.417,2.414,-0.999,-109.619,-55.603,-107.971
0.399,2.104,-0.621,-124.634,-92.407,-143.311
0.398,1.817,-0.220,-147.095,-119.568,-171.570
0.398,1.572,0.211,-172.119,-137.512,-197.449
0.373,1.227,0.722,-187.500,-146.301,-228.577
0.291,0.746,1.295,-173.889,-144.714,-269.226
0.282,0.257,1.821,-138.916,-133.545,-315.796
0.308,-0.319,2.225,-110.962,-104.614,-355.042
0.283,-1.000,2.314,-94.421,-66.406,-379.456
0.210,-1.706,2.238,-71.289,-29.663,-384.705
0.159,-2.391,2.028,-45.959,0.977,-366.272
0.210,-2.893,1.693,-30.701,26.306,-324.768
0.227,-3.094,1.260,-37.659,40.833,-254.944
0.255,-3.071,0.818,-73.853,54.749,-164.246
0.337,-2.835,0.489,-132.751,73.425,-66.467
0.449,-2.473,0.303,-190.430,83.313,13.916
0.570,-2.189,0.235,-218.933,82.275,62.683
0.640,-1.968,0.216,-203.430,73.059,81.177
0.716,-1.767,0.256,-147.034,55.725,73.730
0.792,-1.678,0.301,-67.749,36.987,49.377
0.763,-1.696,0.289,10.925,20.264,17.700
0.722,-1.783,0.267,73.975,5.554,-7.202
0.690,-1.840,0.258,113.403,-4.028,-16.357
0.626,-1.874,0.237,130.737,-7.202,-10.132
0.572,-1.863,0.223,126.465,-5.493,11.230
0.584,-1.754,0.219,106.934,-2.563,44.800
0.604,-1.594,0.201,88.562,-0.793,77.698
0.637,-1.438,0.201,80.505,1.404,103.394
0.649,-1.288,0.225,81.848,-0.732,122.314
0.660,-1.124,0.286,89.539,-4.395,134.094
0.676,-0.997,0.362,98.877,-10.498,141.479
0.657,-0.871,0.433,106.567,-15.686,146.240
0.657,-0.753,0.513,112.122,-16.357,151.184
0.607,-0.611,0.574,113.159,-13.428,159.363
0.591,-0.483,0.625,111.328,-9.338,171.875
0.588,-0.320,0.695,105.286,-4.944,185.852
0.572,-0.141,0.751,100.464,0.427,198.730
0.536,0.075,0.753,102.478,7.874,208.679
0.503,0.311,0.703,108.582,17.578,216.675
0.458,0.553,0.595,107.361,27.832,225.098
0.427,0.782,0.474,97.412,37.231,233.215
0.424,1.068,0.326,84.412,44.250,237.244
0.446,1.382,0.161,79.102,48.767,233.215
0.450,1.630,0.023,85.999,50.720,217.468
0.411,1.777,-0.080,92.041,51.636,194.946
0.363,1.916,-0.142,85.632,49.072,175.842
0.368,2.049,-0.205,77.454,45.410,159.180
0.383,2.159,-0.285,76.416,42.236,138.428
0.415,2.227,-0.375,71.350,40.161,116.333
0.464,2.249,-0.479,54.810,39.856,95.154
0.495,2.219,-0.604,36.560,38.513,72.876
0.529,2.149,-0.717,27.039,32.593,48.645
0.607,2.043,-0.747,25.452,24.292,23.987
0.665,1.912,-0.720,26.917,11.902,-1.160
0.709,1.731,-0.649,29.785,-1.404,-26.184
0.736,1.503,-0.551,30.273,-12.756,-47.607
0.756,1.267,-0.451,25.452,-21.423,-62.866
0.791,1.054,-0.353,17.700,-27.649,-71.655
0.852,0.861,-0.256,11.719,-31.677,-75.012
0.916,0.682,-0.159,7.446,-33.386,-76.050
0.969,0.510,-0.056,4.883,-32.043,-75.989
1.011,0.353,0.052,4.822,-30.090,-75.012
1.059,0.219,0.168,8.484,-26.978,-74.463
1.074,0.129,0.258,14.160,-21.667,-72.876
1.085,0.065,0.289,19.714,-13.550,-68.909
1.077,0.033,0.246,19.958,-5.188,-61.523
1.048,0.042,0.159,12.512,1.709,-50.415
1.020,0.093,0.050,0.366,7.019,-37.109
1.003,0.159,-0.027,-11.841,9.155,-24.719
0.999,0.223,-0.061,-21.851,7.263,-15.625
0.996,0.269,-0.046,-26.367,3.296,-10.864
1.004,0.287,0.004,-25.696,-1.038,-10.315
0.997,0.287,0.044,-22.217,-4.272,-12.756
0.989,0.269,0.085,-15.686,-5.615,-16.602
0.990,0.247,0.112,-7.874,-5.798,-20.996
0.983,0.231,0.107,-2.319,-4.822,-24.475
0.979,0.198,0.104,0.000,-3.113,-25.940
0.954,0.178,0.071,-0.549,-3.662,-26.184
0.941,0.165,0.044,-2.136,-0.549,-23.560
0.941,0.157,0.024,-4.211,2.686,-19.592
0.948,0.150,0.013,-7.507,2.502,-16.174
0.944,0.142,0.023,-10.315,-0.854,-13.733
0.954,0.134,0.051,-10.132,-4.272,-12.146
0.973,0.120,0.089,-6.226,-6.836,-12.756
0.977,0.106,0.120,-0.488,-8.545,-14.526
0.979,0.095,0.145,5.920,-9.277,-16.357
0.976,0.092,0.150,10.742,-8.240,-16.968
0.963,0.095,0.125,11.719,-6.042,-15.564
0.952,0.104,0.086,8.728,-3.357,-12.024
0.943,0.124,0.048,4.089,-1.221,-6.409
0.933,0.148,0.017,-1.099,0.183,-1.099
0.934,0.181,-0.001,-6.653,0.427,4.517
0.940,0.220,-0.007,-12.329,-0.183,9.460
0.945,0.243,-0.000,-15.625,-1.221,12.024
0.952,0.264,0.012,-16.113,-1.587,13.123
0.958,0.280,0.024,-13.916,-1.953,12.146
0.961,0.287,0.040,-10.620,-2.197,9.644
0.958,0.284,0.047,-6.592,-1.526,6.653
0.960,0.291,0.039,-2.014,-0.183,3.113
0.957,0.284,0.019,3.052,0.549,-0.610
0.953,0.267,0.001,5.188,1.099,-2.258
0.953,0.250,-0.004,4.578,0.916,-2.319
0.962,0.235,0.004,3.357,0.427,-1.709
0.970,0.225,0.019,1.648,0.122,-0.061
0.977,0.220,0.033,0.000,-0.244,1.587
0.979,0.220,0.042,-0.977,-0.549,2.625
0.982,0.215,0.047,-0.305,0.427,3.174
0.980,0.219,0.038,1.160,1.038,3.357
0.974,0.228,0.020,1.892,0.977,3.601
0.967,0.236,0.008,2.319,1.038,4.272
0.965,0.257,0.002,2.075,1.343,5.249
0.967,0.279,-0.006,1.099,1.160,6.042
0.966,0.299,-0.014,-0.610,0.916,6.714
0.968,0.311,-0.010,-2.197,0.427,7.202

0.784,-1.511,0.721,-49.255,5.981,-116.028
0.748,-1.693,0.742,-8.545,2.625,-127.014
0.709,-1.835,0.729,26.184,2.808,-129.822
0.638,-1.974,0.640,41.809,10.742,-120.300
0.570,-2.080,0.505,38.391,20.813,-97.534
0.537,-2.124,0.354,26.062,28.198,-64.941
0.523,-2.108,0.235,15.747,31.311,-29.480
0.498,-2.076,0.139,9.766,27.649,2.319
0.502,-2.025,0.130,10.681,20.874,27.344
0.511,-1.997,0.185,21.179,12.695,45.105
0.512,-1.966,0.288,40.161,4.211,57.312
0.513,-1.921,0.370,62.073,-1.587,69.275
0.507,-1.833,0.427,80.811,-3.357,84.045
0.507,-1.709,0.461,91.003,-1.770,103.638
0.502,-1.563,0.452,89.539,3.723,127.869
0.496,-1.398,0.402,81.848,9.521,153.931
0.473,-1.215,0.353,73.120,13.306,179.565
0.456,-1.017,0.322,65.247,13.794,203.369
0.445,-0.813,0.320,63.416,13.428,222.168
0.451,-0.598,0.350,67.322,11.902,234.863
0.472,-0.395,0.401,77.698,9.155,241.455
0.487,-0.190,0.467,96.313,3.662,241.089
0.516,0.005,0.575,118.713,-0.854,235.413
0.532,0.159,0.703,136.475,-1.038,228.821
0.503,0.293,0.780,140.747,5.859,226.990
0.488,0.487,0.767,135.925,21.423,229.126
0.471,0.675,0.665,137.451,38.635,228.577
0.449,0.833,0.522,144.836,52.856,221.558
0.431,0.985,0.365,149.658,62.134,211.060
0.442,1.153,0.251,151.367,65.674,200.256
0.431,1.309,0.175,151.794,63.904,189.453
0.443,1.448,0.127,142.944,59.326,180.786
0.454,1.632,0.073,120.789,57.068,179.260
0.453,1.839,-0.028,96.558,60.059,176.819
0.465,2.042,-0.167,78.674,63.721,166.138
0.476,2.171,-0.318,65.002,64.209,147.339
0.491,2.191,-0.442,52.429,60.120,124.695
0.512,2.165,-0.505,41.138,50.964,100.037
0.567,2.077,-0.512,41.260,36.926,71.106
0.639,1.961,-0.450,52.551,21.545,39.063
0.693,1.818,-0.367,60.852,8.057,10.925
0.733,1.658,-0.308,61.829,-1.099,-9.705
0.744,1.506,-0.278,57.373,-3.784,-23.743
0.755,1.380,-0.286,47.729,-4.700,-32.043
0.781,1.287,-0.279,34.607,-6.287,-35.767
0.813,1.177,-0.239,22.339,-7.996,-37.415
0.831,1.064,-0.200,10.132,-9.155,-38.757
0.844,0.952,-0.166,-0.671,-9.644,-38.818
0.880,0.834,-0.126,-6.104,-10.071,-39.795
0.903,0.709,-0.070,-6.042,-9.827,-43.152
0.921,0.595,-0.022,-0.671,-9.399,-48.096
0.939,0.496,-0.006,6.409,-7.568,-52.429
0.940,0.442,-0.011,11.230,-5.249,-53.772
0.927,0.407,-0.032,11.658,-3.357,-52.063
0.912,0.397,-0.073,6.592,-2.258,-47.363
0.890,0.400,-0.116,-1.526,-2.197,-41.321
0.876,0.412,-0.138,-9.705,-4.211,-35.645
0.886,0.422,-0.126,-16.235,-8.301,-31.738
0.917,0.413,-0.080,-19.714,-13.367,-30.884
0.947,0.379,0.009,-18.555,-18.494,-34.180
0.973,0.324,0.134,-11.230,-21.118,-40.466
1.005,0.269,0.248,-0.183,-19.470,-48.340
1.008,0.231,0.278,10.681,-14.404,-54.321
1.011,0.191,0.286,17.761,-6.104,-56.213
0.962,0.173,0.194,17.822,-1.038,-54.260
0.928,0.186,0.086,12.329,4.578,-47.424
0.908,0.210,-0.005,2.502,8.240,-37.170
0.903,0.230,-0.064,-10.071,6.897,-27.100
0.915,0.244,-0.076,-23.010,1.099,-19.348
0.924,0.226,-0.037,-28.809,-4.456,-14.893
0.944,0.202,0.032,-27.039,-9.155,-14.160
0.957,0.194,0.101,-21.362,-12.207,-15.625
0.964,0.198,0.153,-13.855,-13.428,-17.761
0.972,0.209,0.175,-6.287,-11.841,-19.592
0.958,0.228,0.144,-3.052,-8.057,-20.081
0.951,0.248,0.087,-3.235,-3.601,-19.348
0.949,0.248,0.033,-4.395,-1.282,-18.555
0.949,0.236,0.012,-4.395,-1.099,-19.043
0.954,0.212,0.021,-2.686,-2.014,-20.142
0.959,0.186,0.036,-1.648,-3.113,-20.020
0.961,0.175,0.039,-2.258,-3.540,-18.250
0.956,0.162,0.032,-4.639,-3.113,-14.587
0.944,0.152,0.020,-8.789,-2.197,-8.972
0.943,0.168,0.011,-12.573,-0.977,-3.479
0.947,0.204,0.005,-13.733,0.488,0.183
0.956,0.229,0.006,-12.634,1.282,1.587
0.963,0.233,0.018,-10.315,1.648,0.732
0.966,0.226,0.027,-7.080,1.404,-0.977
0.970,0.222,0.029,-4.211,1.526,-2.197
0.970,0.222,0.025,-2.991,1.831,-2.380
0.969,0.221,0.015,-3.784,2.197,-1.770
0.960,0.214,0.005,-4.517,2.563,-0.610
0.958,0.211,0.004,-4.761,2.686,0.793
0.957,0.216,0.003,-4.883,2.441,2.136
0.956,0.232,-0.001,-4.456,2.380,2.930
0.951,0.251,-0.016,-3.662,2.441,3.052
0.955,0.270,-0.019,-2.991,1.953,2.991
0.956,0.280,-0.012,-2.991,0.854,2.747
0.960,0.290,0.003,-3.174,-0.427,2.136
0.962,0.294,0.013,-2.808,-0.427,1.343
0.959,0.292,0.013,-1.892,-0.122,0.366
0.954,0.280,0.009,-1.648,0.244,-0.671
0.946,0.260,0.006,-1.221,0.610,-1.282
0.942,0.248,-0.001,-0.061,1.038,-1.404
0.940,0.249,-0.011,0.732,0.977,-1.099
0.937,0.251,-0.015,0.061,0.366,0.000
0.939,0.253,-0.008,-1.038,-0.366,1.587
0.949,0.260,0.005,-1.770,-1.160,2.686
0.960,0.269,0.023,-1.709,-1.465,2.930
0.964,0.276,0.031,-0.793,-1.221,2.747
0.970,0.283,0.036,-0.122,-0.916,2.075
0.970,0.279,0.034,0.488,-0.244,1.038
0.962,0.270,0.027,1.282,0.427,0.000
0.954,0.262,0.018,3.235,0.854,-0.977
0.947,0.265,0.005,4.517,0.610,-1.526
0.940,0.271,-0.007,3.723,0.610,-0.610
0.942,0.279,-0.012,1.709,0.244,0.732
0.949,0.290,-0.009,0.000,-0.610,1.953
0.953,0.289,0.001,-1.099,-1.404,2.441

0.803,1.829,-0.211,-34.851,4.272,16.541
0.777,1.967,-0.292,-45.593,4.089,4.333
0.746,2.061,-0.355,-58.411,4.333,-9.705
0.699,2.087,-0.397,-69.458,1.343,-28.931
0.631,2.028,-0.386,-76.233,-5.066,-51.758
0.616,1.930,-0.323,-82.703,-13.306,-74.097
0.587,1.786,-0.217,-89.539,-25.085,-93.079
0.591,1.648,-0.091,-100.403,-34.424,-108.215
0.581,1.506,0.035,-115.540,-39.917,-120.117
0.571,1.342,0.143,-131.348,-43.396,-129.639
0.570,1.182,0.260,-146.240,-44.861,-138.184
0.556,1.012,0.400,-156.555,-45.593,-147.949
0.567,0.810,0.566,-158.020,-45.898,-158.936
0.623,0.581,0.759,-153.809,-42.175,-170.471
0.632,0.329,0.890,-146.851,-34.302,-180.786
0.606,0.119,0.939,-140.442,-23.987,-187.439
0.584,-0.051,0.933,-134.094,-11.719,-190.002
0.586,-0.189,0.890,-131.958,-1.160,-188.354
0.584,-0.346,0.822,-135.498,7.141,-184.814
0.560,-0.511,0.791,-135.498,11.597,-183.594
0.555,-0.752,0.810,-127.502,13.855,-189.636
0.522,-1.137,0.858,-105.774,14.282,-203.186
0.513,-1.528,0.944,-64.941,11.597,-220.581
0.477,-1.871,0.963,-13.062,8.484,-234.436
0.452,-2.152,0.906,27.893,11.353,-234.192
0.408,-2.384,0.743,40.833,20.447,-213.013
0.355,-2.580,0.535,26.733,34.424,-174.622
0.305,-2.811,0.332,3.357,48.035,-130.432
0.269,-3.009,0.160,-7.080,51.636,-88.745
0.270,-3.098,0.033,4.761,42.969,-54.810
0.265,-3.078,-0.029,32.654,28.564,-26.733
0.250,-2.966,-0.068,64.148,13.611,-0.549
0.267,-2.733,-0.075,82.458,3.296,29.602
0.261,-2.474,-0.088,82.031,-1.648,65.308
0.256,-2.239,-0.082,76.172,-5.981,99.976
0.295,-1.985,-0.056,73.914,-10.376,126.892
0.292,-1.767,-0.032,79.956,-15.747,144.104
0.305,-1.588,0.016,96.313,-21.118,151.001
0.297,-1.468,0.086,116.333,-28.320,151.550
0.287,-1.355,0.149,135.742,-35.950,150.574
0.283,-1.266,0.231,155.640,-44.067,152.405
0.277,-1.139,0.332,168.335,-54.138,160.889
0.279,-0.949,0.465,170.715,-63.660,177.917
0.283,-0.682,0.643,165.161,-71.472,202.271
0.297,-0.326,0.841,154.419,-75.989,230.469
0.330,0.079,1.039,137.268,-72.693,257.874
0.344,0.453,1.128,114.014,-58.655,282.104
0.342,0.786,1.091,88.318,-36.865,301.636
0.354,1.116,0.936,72.510,-15.076,312.317
0.337,1.421,0.706,73.120,2.075,308.228
0.288,1.736,0.504,83.008,20.325,289.185
0.245,2.044,0.306,94.177,35.583,263.977
0.218,2.286,0.105,98.938,45.471,238.220
0.206,2.475,-0.075,90.088,51.636,214.966
0.235,2.655,-0.257,71.228,52.673,193.787
0.297,2.763,-0.419,56.030,48.462,167.969
0.341,2.775,-0.539,41.809,40.527,138.184
0.399,2.677,-0.611,21.423,29.419,110.352
0.471,2.527,-0.644,2.136,17.334,82.947
0.555,2.369,-0.643,-4.761,4.944,54.138
0.649,2.149,-0.562,4.761,-8.301,21.973
0.743,1.910,-0.420,20.508,-23.682,-11.047
0.806,1.659,-0.274,30.701,-34.729,-38.879
0.863,1.386,-0.137,32.532,-40.100,-57.678
0.916,1.139,-0.031,26.794,-40.466,-67.078
0.953,0.944,0.032,16.602,-37.720,-67.749
1.008,0.793,0.109,5.737,-34.180,-63.293
1.060,0.671,0.174,-2.563,-30.945,-58.228
1.095,0.547,0.233,-5.188,-26.367,-55.359
1.111,0.431,0.278,-4.395,-21.912,-54.749
1.127,0.337,0.318,-1.343,-16.235,-54.504
1.130,0.270,0.327,2.808,-9.399,-52.673
1.108,0.227,0.296,3.357,-2.197,-48.523
1.070,0.204,0.229,-2.319,5.249,-41.199
1.011,0.220,0.140,-11.780,11.292,-31.982
0.980,0.253,0.070,-22.583,14.221,-23.376
0.944,0.288,0.016,-29.846,14.099,-18.066
0.935,0.319,-0.004,-31.372,11.169,-17.639
0.937,0.322,-0.002,-29.846,6.836,-20.569
0.912,0.288,0.023,-25.391,2.625,-26.123
0.914,0.255,0.067,-17.334,-1.099,-31.738
0.900,0.231,0.090,-8.362,-4.883,-35.461
0.909,0.239,0.109,-3.113,-5.493,-37.964
0.881,0.249,0.065,-2.625,-4.944,-37.537
0.893,0.256,0.042,-4.944,-3.357,-33.752
0.918,0.240,0.038,-7.996,-2.747,-29.907
0.932,0.201,0.052,-5.737,-4.333,-31.738
0.952,0.137,0.112,1.648,-6.897,-34.912
0.939,0.103,0.143,8.606,-12.268,-37.231
0.943,0.071,0.179,13.184,-8.423,-34.973
0.941,0.047,0.183,13.123,-1.038,-28.687
0.931,0.063,0.149,8.362,4.578,-19.836
0.904,0.129,0.069,1.953,4.883,-10.315
0.902,0.210,0.003,-4.700,3.845,-1.892
0.904,0.269,-0.036,-12.878,2.563,4.333
0.913,0.297,-0.036,-18.311,-0.244,7.690
0.928,0.304,-0.010,-18.372,-3.967,7.446
0.939,0.294,0.029,-15.442,-6.958,5.737
0.950,0.284,0.062,-12.451,-8.240,3.784
0.954,0.273,0.078,-10.132,-7.874,2.197
0.953,0.268,0.080,-6.836,-5.798,0.366
0.949,0.275,0.060,-3.235,-3.113,-1.038
0.945,0.267,0.034,-0.366,-1.160,-2.197
0.941,0.258,0.010,0.610,-0.549,-2.502
0.938,0.243,0.004,0.427,-0.793,-2.686
0.939,0.231,0.007,0.244,-1.282,-2.380
0.946,0.223,0.012,0.427,-2.075,-1.831
0.950,0.223,0.018,-0.366,-2.502,-0.061
0.946,0.220,0.017,-1.709,-2.930,2.441
0.946,0.235,0.020,-2.136,-2.991,5.005
0.947,0.266,0.023,-2.136,-2.869,7.080
0.955,0.307,0.035,-2.869,-2.686,8.850
0.957,0.345,0.045,-2.380,-2.441,9.216
0.966,0.366,0.057,-0.732,-1.648,8.301
0.969,0.376,0.058,0.549,-0.854,6.042
0.970,0.371,0.061,1.770,-0.671,3.174
0.972,0.354,0.066,3.296,-0.671,0.549
0.969,0.343,0.062,4.456,-0.977,-1.221
0.966,0.324,0.064,3.967,-1.038,-1.709

0.996,1.530,-0.132,-11.780,25.085,-0.122
0.952,1.573,-0.146,-25.879,25.940,-17.029
0.914,1.569,-0.137,-40.588,26.917,-36.438
0.853,1.519,-0.128,-53.955,26.062,-59.204
0.804,1.428,-0.096,-66.284,24.231,-82.458
0.760,1.290,-0.068,-78.369,21.729,-105.164
0.710,1.140,-0.027,-88.684,18.311,-124.634
0.672,0.990,0.038,-97.961,14.709,-140.259
0.626,0.838,0.106,-109.192,11.841,-152.527
0.593,0.676,0.166,-123.230,10.681,-160.095
0.559,0.507,0.225,-137.085,10.864,-164.307
0.515,0.359,0.282,-148.437,9.888,-167.419
0.496,0.220,0.337,-156.982,9.216,-168.945
0.504,0.052,0.371,-164.551,8.118,-170.288
0.483,-0.180,0.416,-172.791,8.179,-173.828
0.463,-0.452,0.460,-174.316,8.423,-180.603
0.457,-0.759,0.479,-167.053,9.949,-189.087
0.430,-1.038,0.470,-151.794,13.000,-195.923
0.381,-1.277,0.426,-133.179,17.700,-195.923
0.361,-1.486,0.369,-119.263,23.010,-184.998
0.343,-1.676,0.290,-115.295,26.123,-163.208
0.327,-1.818,0.177,-117.188,28.198,-136.414
0.312,-1.929,0.070,-117.249,29.480,-111.389
0.314,-2.064,-0.039,-112.549,28.442,-91.370
0.329,-2.271,-0.132,-101.746,25.085,-79.712
0.334,-2.541,-0.205,-79.712,20.996,-77.942
0.349,-2.877,-0.265,-44.922,16.235,-83.008
0.308,-3.268,-0.306,0.854,11.475,-89.600
0.238,-3.620,-0.379,56.213,6.897,-90.698
0.162,-3.892,-0.453,113.464,1.953,-77.576
0.071,-4.000,-0.550,160.583,-5.249,-46.936
-0.001,-3.990,-0.653,187.683,-17.395,1.404
-0.054,-3.740,-0.706,196.472,-33.020,59.265
-0.089,-3.400,-0.665,196.655,-51.208,117.737
-0.109,-3.001,-0.551,195.312,-74.036,170.593
-0.119,-2.558,-0.374,197.266,-98.145,215.759
-0.100,-2.116,-0.123,201.172,-119.690,254.211
-0.091,-1.645,0.155,198.303,-138.306,291.077
-0.084,-1.152,0.457,183.533,-152.710,331.848
-0.059,-0.656,0.759,155.090,-157.593,376.770
-0.028,-0.144,1.043,117.126,-152.527,424.316
-0.002,0.401,1.271,76.538,-138.367,469.116
-0.008,0.870,1.397,46.631,-113.220,501.343
-0.039,1.333,1.394,38.086,-78.979,511.719
-0.124,1.779,1.269,53.223,-38.330,496.033
-0.119,2.315,1.052,83.679,1.160,452.515
-0.029,2.867,0.797,127.808,35.522,380.249
0.066,3.268,0.516,180.664,61.035,279.358
0.162,3.423,0.288,220.886,72.754,166.504
0.142,3.236,0.204,226.074,73.669,67.871
0.162,2.890,0.139,193.726,65.063,4.211
0.124,2.468,0.140,144.409,48.035,-30.701
0.105,2.013,0.104,103.088,30.823,-44.250
0.164,1.711,0.071,71.899,16.418,-41.382
0.266,1.534,0.049,44.800,5.859,-28.015
0.392,1.420,0.006,19.653,-0.549,-9.644
0.526,1.353,-0.051,-4.639,-3.845,6.531
0.628,1.314,-0.118,-21.912,-5.432,12.695
0.715,1.245,-0.179,-25.940,-5.981,5.310
0.777,1.137,-0.215,-20.264,-6.958,-11.963
0.805,1.008,-0.231,-13.489,-8.789,-31.372
0.834,0.874,-0.236,-11.902,-8.789,-45.898
0.856,0.727,-0.235,-17.517,-7.996,-52.979
0.875,0.571,-0.222,-26.245,-6.958,-54.565
0.909,0.435,-0.197,-32.471,-7.019,-53.284
0.951,0.326,-0.159,-34.058,-7.080,-50.903
0.997,0.256,-0.112,-31.067,-6.409,-47.913
1.037,0.214,-0.071,-26.367,-4.761,-44.312
1.073,0.186,-0.035,-24.536,-2.136,-39.612
1.104,0.154,-0.003,-26.855,1.099,-34.241
1.122,0.131,0.014,-30.090,3.723,-29.236
1.128,0.112,0.029,-30.212,7.446,-26.917
1.128,0.105,0.030,-26.917,10.925,-27.710
1.130,0.104,0.031,-21.790,14.160,-30.212
1.113,0.109,0.023,-15.930,17.517,-33.691
1.094,0.109,0.003,-10.010,20.874,-37.292
1.074,0.114,-0.030,-6.226,23.987,-39.978
1.038,0.112,-0.062,-4.883,26.123,-41.565
1.004,0.105,-0.090,-4.395,27.588,-41.382
0.982,0.102,-0.115,-4.150,28.076,-40.039
0.978,0.101,-0.147,-4.333,27.649,-37.964
0.970,0.097,-0.167,-4.822,26.550,-34.668
0.961,0.089,-0.181,-5.310,25.269,-31.494
0.956,0.071,-0.194,-4.944,24.231,-28.564
0.956,0.056,-0.190,-3.845,22.095,-25.330
0.952,0.067,-0.195,-1.709,18.433,-22.461
0.951,0.074,-0.201,0.061,16.296,-18.921
0.946,0.090,-0.214,0.183,15.991,-14.893
0.944,0.105,-0.222,-0.793,17.212,-10.864
0.934,0.121,-0.236,-1.038,17.700,-7.568
0.928,0.139,-0.249,-0.366,17.822,-5.371
0.919,0.159,-0.258,0.061,17.029,-3.784
0.910,0.174,-0.264,-0.549,15.625,-2.197
0.904,0.188,-0.268,-2.502,13.977,-0.061
0.898,0.194,-0.266,-4.822,11.658,2.747
0.891,0.203,-0.264,-6.775,8.789,4.944
0.891,0.216,-0.260,-6.653,6.287,5.493
0.894,0.228,-0.253,-4.822,4.150,4.395
0.894,0.233,-0.249,-3.662,1.709,2.747
0.895,0.234,-0.243,-3.540,0.061,1.892
0.898,0.234,-0.236,-4.333,-1.099,2.075
0.908,0.230,-0.224,-5.615,-2.075,2.808
0.925,0.232,-0.206,-6.287,-2.747,3.235
0.942,0.235,-0.185,-5.920,-3.540,2.991
0.958,0.240,-0.171,-5.493,-3.601,2.686
0.970,0.249,-0.166,-6.104,-2.808,2.441
0.981,0.248,-0.162,-7.446,-2.258,2.380
0.985,0.247,-0.164,-8.301,-1.892,1.343
0.984,0.236,-0.162,-7.751,-1.160,-0.122
0.982,0.231,-0.164,-5.920,-0.488,-1.587
0.986,0.219,-0.165,-4.272,0.916,-2.319
0.982,0.211,-0.173,-3.967,1.282,-2.197
0.974,0.203,-0.179,-4.395,1.770,-1.099
0.966,0.206,-0.190,-4.639,2.502,0.732
0.964,0.219,-0.203,-5.066,3.052,3.174
0.955,0.241,-0.219,-5.371,2.502,5.188
0.958,0.262,-0.227,-5.615,2.319,6.104
0.961,0.277,-0.228,-6.104,1.221,5.798
0.955,0.288,-0.228,-6.714,-0.061,4.700

0.652,-2.911,0.324,-161.804,6.531,-247.253
0.462,-3.638,0.335,-79.956,31.738,-282.532
0.380,-4.000,0.146,21.057,55.786,-302.246
0.278,-4.000,0.092,110.046,64.636,-269.775
-0.012,-4.000,-0.618,165.588,79.956,-181.885
-0.062,-4.000,-1.444,166.870,83.618,-47.180
-0.168,-3.829,-2.082,98.938,58.167,76.965
0.109,-2.962,-1.996,63.538,-7.874,133.850
0.043,-3.205,-1.728,92.468,-50.110,140.564
0.047,-3.034,-1.325,141.418,-100.830,158.325
0.110,-2.713,-0.879,189.392,-154.297,165.833
0.299,-2.265,-0.181,198.364,-183.655,191.040
0.381,-1.927,0.312,164.001,-194.458,244.812
0.504,-1.632,0.757,120.667,-180.420,307.800
0.626,-1.358,1.155,97.168,-158.630,368.958
0.708,-0.956,1.374,83.008,-128.784,424.744
0.707,-0.483,1.390,72.205,-93.201,470.459
0.597,-0.087,1.294,70.374,-57.678,497.192
0.498,0.324,1.212,75.134,-25.574,504.517
0.449,0.805,1.239,88.257,2.441,492.126
0.435,1.315,1.212,115.295,29.175,454.529
0.407,1.766,1.026,155.029,58.838,389.404
0.352,2.117,0.797,191.956,85.571,308.411
0.282,2.338,0.581,202.026,103.638,232.605
0.172,2.375,0.402,179.016,112.366,176.270
0.022,2.327,0.199,139.526,112.549,140.320
-0.126,2.237,0.031,105.042,106.873,112.305
-0.211,2.145,-0.130,80.750,97.168,87.097
-0.232,2.038,-0.275,58.960,84.167,67.505
-0.245,1.918,-0.413,35.400,67.200,53.284
-0.216,1.797,-0.495,15.625,48.035,39.795
-0.142,1.652,-0.505,2.747,28.137,24.536
-0.029,1.492,-0.476,-3.540,9.155,5.615
0.074,1.319,-0.427,-4.211,-6.653,-15.320
0.154,1.145,-0.368,-1.648,-18.616,-35.950
0.255,0.978,-0.327,0.061,-25.940,-52.124
0.343,0.812,-0.303,-1.953,-29.358,-61.523
0.450,0.657,-0.280,-6.714,-28.625,-65.796
0.551,0.512,-0.261,-13.489,-26.123,-66.040
0.650,0.382,-0.255,-18.127,-23.621,-64.087
0.745,0.264,-0.240,-18.860,-21.240,-60.913
0.818,0.167,-0.223,-15.930,-19.287,-57.617
0.897,0.092,-0.201,-11.597,-15.686,-53.284
0.965,0.044,-0.187,-8.362,-11.719,-47.058
1.012,0.016,-0.175,-6.409,-9.094,-39.063
1.049,0.004,-0.156,-5.310,-7.019,-30.029
1.077,0.024,-0.161,-6.226,-4.150,-20.081
1.072,0.051,-0.177,-8.362,-2.319,-10.010
1.059,0.089,-0.206,-10.132,-1.648,-2.014
1.055,0.137,-0.219,-11.536,-1.709,3.967
1.057,0.192,-0.235,-12.573,-3.113,8.179
1.052,0.240,-0.232,-12.512,-4.211,9.277
1.066,0.275,-0.218,-11.169,-5.920,8.362
1.080,0.298,-0.199,-9.277,-7.324,4.517
1.085,0.300,-0.177,-5.676,-7.568,-1.160
1.088,0.308,-0.167,-1.465,-7.568,-8.484
1.094,0.311,-0.165,2.441,-4.517,-15.259
1.087,0.305,-0.183,4.578,-1.648,-19.714
1.077,0.297,-0.205,4.517,1.160,-21.667
1.061,0.285,-0.223,4.028,2.991,-22.339
1.046,0.274,-0.228,3.967,3.906,-21.973
1.043,0.274,-0.243,2.808,4.333,-20.447
1.027,0.283,-0.257,1.587,2.991,-18.250
1.014,0.283,-0.256,-0.061,3.540,-16.113
1.008,0.288,-0.256,-1.587,4.822,-13.672
1.002,0.301,-0.256,-2.747,4.822,-12.085
0.995,0.315,-0.253,-3.357,4.639,-11.536
0.982,0.323,-0.248,-3.906,5.371,-11.292
0.963,0.324,-0.247,-5.066,7.019,-10.742
0.943,0.322,-0.245,-6.775,8.667,-9.521
0.922,0.327,-0.250,-8.057,9.949,-8.301
0.904,0.331,-0.259,-8.057,10.437,-7.568
0.897,0.335,-0.260,-7.263,10.498,-7.568
0.893,0.339,-0.260,-6.409,10.254,-7.751
0.894,0.338,-0.261,-5.981,10.071,-7.568
0.890,0.332,-0.259,-5.310,9.399,-7.996
0.885,0.336,-0.261,-4.150,8.606,-8.728
0.885,0.329,-0.255,-2.380,8.301,-9.521
0.881,0.321,-0.254,-1.709,7.996,-9.827
0.875,0.314,-0.259,-3.113,7.568,-8.850
0.875,0.308,-0.259,-4.639,7.019,-7.507
0.877,0.295,-0.253,-5.920,6.104,-6.470
0.880,0.288,-0.248,-7.263,5.493,-4.883
0.884,0.282,-0.252,-8.362,4.578,-2.991
0.885,0.276,-0.255,-9.094,3.540,-2.075
0.890,0.267,-0.254,-8.911,2.197,-1.648
0.896,0.265,-0.253,-8.423,1.160,-1.709
0.899,0.262,-0.251,-7.629,0.061,-2.075
0.902,0.259,-0.251,-6.409,-0.305,-2.563
0.905,0.250,-0.254,-4.822,-0.610,-3.967
0.910,0.239,-0.255,-3.601,-0.854,-5.615
0.913,0.230,-0.261,-2.747,-1.160,-6.775
0.917,0.222,-0.263,-2.258,-1.770,-7.141
0.923,0.211,-0.254,-1.892,-2.319,-7.080
0.926,0.201,-0.243,-1.648,-2.563,-5.920
0.925,0.198,-0.238,-1.587,-2.502,-4.089
0.930,0.201,-0.234,-0.854,-2.441,-2.563
0.935,0.204,-0.236,0.183,-2.075,-1.526
0.938,0.205,-0.238,1.343,-1.404,-0.916
0.941,0.211,-0.246,2.258,-0.671,-0.305
0.942,0.213,-0.254,2.869,-0.305,0.610
0.945,0.225,-0.255,2.930,-0.427,1.343
0.944,0.238,-0.255,2.014,-0.488,2.625
0.946,0.250,-0.252,1.404,-0.549,3.662
0.948,0.256,-0.246,1.953,-0.488,3.784
0.953,0.265,-0.240,2.014,-0.122,3.662
0.956,0.278,-0.237,1.160,0.244,4.272
0.957,0.287,-0.239,0.671,0.610,4.578
0.959,0.284,-0.242,0.854,1.099,3.906
0.960,0.280,-0.243,1.465,1.343,2.625
0.960,0.274,-0.241,2.502,1.709,1.343
0.954,0.268,-0.245,3.052,2.197,0.671
0.949,0.264,-0.256,2.686,2.686,0.916
0.943,0.263,-0.270,2.075,2.625,1.282
0.937,0.267,-0.281,1.770,2.380,1.648
0.935,0.267,-0.288,1.648,1.770,1.831
0.935,0.265,-0.289,1.160,0.977,1.892
0.942,0.264,-0.282,1.099,0.061,1.831
0.944,0.265,-0.275,1.160,-0.977,1.587

0.925,1.484,-0.148,-32.349,20.081,-1.526
0.848,1.640,-0.128,-38.940,21.484,-15.808
0.794,1.790,-0.120,-45.776,22.888,-35.400
0.739,1.900,-0.120,-57.678,22.827,-57.373
0.679,1.945,-0.108,-76.355,20.752,-80.688
0.619,1.921,-0.085,-99.548,15.686,-104.065
0.543,1.798,-0.043,-123.535,9.399,-127.808
0.469,1.620,0.008,-144.714,2.686,-153.198
0.404,1.408,0.063,-162.537,-4.028,-179.749
0.417,1.155,0.109,-177.124,-11.658,-206.726
0.430,0.866,0.140,-190.735,-17.639,-233.765
0.398,0.532,0.184,-199.280,-21.851,-263.977
0.380,0.116,0.221,-195.740,-25.879,-299.194
0.352,-0.419,0.299,-179.687,-26.978,-335.327
0.288,-1.028,0.367,-150.024,-22.156,-368.896
0.266,-1.722,0.375,-101.196,-8.179,-396.606
0.229,-2.360,0.272,-37.231,9.521,-411.865
0.254,-2.857,0.083,21.790,26.123,-404.968
0.293,-3.201,-0.145,58.838,37.903,-373.779
0.180,-3.473,-0.353,77.393,47.668,-320.618
0.113,-3.677,-0.637,86.975,57.312,-249.817
0.043,-3.762,-0.842,88.501,59.570,-171.997
-0.006,-3.703,-1.018,85.022,55.298,-93.262
-0.031,-3.544,-1.112,81.543,48.035,-21.484
-0.061,-3.258,-1.132,84.900,33.264,36.133
-0.097,-2.910,-1.070,95.642,13.306,79.834
-0.120,-2.554,-1.009,109.619,-6.409,109.497
-0.134,-2.260,-0.916,123.718,-27.283,129.272
-0.134,-2.021,-0.782,136.292,-49.500,143.799
-0.146,-1.802,-0.628,145.264,-72.205,156.372
-0.141,-1.568,-0.479,150.635,-93.933,169.250
-0.164,-1.369,-0.325,151.917,-113.525,185.059
-0.178,-1.124,-0.150,148.132,-129.089,207.336
-0.167,-0.840,0.064,134.216,-140.137,238.831
-0.151,-0.554,0.292,105.774,-144.226,281.433
-0.129,-0.297,0.474,67.932,-141.052,331.787
-0.129,-0.024,0.601,38.208,-134.155,377.625
-0.152,0.250,0.730,29.236,-124.268,408.325
-0.129,0.578,0.797,39.734,-109.436,418.762
-0.126,0.911,0.814,65.186,-94.421,409.973
-0.074,1.302,0.780,94.055,-78.003,384.338
0.026,1.749,0.691,115.051,-60.547,345.337
0.186,2.087,0.610,121.460,-41.199,292.419
0.190,2.244,0.577,116.516,-23.499,235.229
0.234,2.325,0.448,109.070,-8.850,183.228
0.197,2.180,0.418,106.506,1.282,130.371
0.196,2.063,0.373,107.605,8.118,87.463
0.202,2.009,0.273,104.553,12.817,53.711
0.239,1.948,0.162,93.750,14.954,31.311
0.306,1.885,0.042,74.646,13.245,19.531
0.401,1.791,-0.045,52.979,9.399,10.864
0.524,1.652,-0.095,34.729,3.906,1.526
0.636,1.502,-0.117,19.775,-2.625,-7.996
0.764,1.317,-0.109,9.216,-8.423,-19.165
0.860,1.113,-0.084,2.625,-12.207,-29.114
0.947,0.938,-0.071,-2.075,-12.573,-36.682
1.017,0.772,-0.062,-6.042,-9.583,-41.260
1.063,0.599,-0.068,-10.132,-4.333,-42.908
1.086,0.442,-0.089,-11.963,0.671,-42.664
1.121,0.339,-0.117,-9.338,5.493,-42.236
1.160,0.292,-0.145,-5.676,9.888,-41.626
1.178,0.257,-0.167,-3.906,12.207,-38.330
1.180,0.234,-0.197,-5.310,14.343,-32.593
1.171,0.207,-0.208,-9.399,17.151,-27.161
1.168,0.175,-0.206,-12.939,19.531,-22.766
1.160,0.138,-0.205,-13.489,19.531,-19.714
1.142,0.112,-0.187,-11.047,17.273,-18.494
1.132,0.100,-0.171,-6.897,14.709,-18.127
1.118,0.110,-0.166,-4.150,13.672,-16.785
1.100,0.125,-0.166,-3.418,14.343,-14.648
1.075,0.145,-0.171,-3.723,15.686,-12.268
1.043,0.158,-0.188,-3.357,16.785,-11.230
1.009,0.167,-0.206,-1.099,17.578,-12.146
0.979,0.185,-0.219,2.014,17.822,-14.465
0.953,0.202,-0.226,3.845,18.677,-15.381
0.921,0.223,-0.243,2.808,19.287,-14.648
0.884,0.247,-0.263,0.122,19.043,-12.451
0.851,0.265,-0.277,-2.319,18.555,-10.315
0.841,0.279,-0.289,-3.906,17.639,-8.545
0.827,0.293,-0.297,-4.456,16.357,-7.324
0.829,0.301,-0.284,-4.333,15.503,-6.165
0.827,0.310,-0.285,-4.456,13.184,-6.104
0.820,0.301,-0.282,-4.639,14.709,-3.906
0.831,0.301,-0.280,-5.066,15.564,-1.953
0.843,0.305,-0.277,-5.676,14.038,-0.427
0.849,0.316,-0.273,-6.042,11.475,1.099
0.859,0.330,-0.262,-5.554,10.010,2.441
0.873,0.341,-0.251,-5.188,8.667,2.991
0.879,0.351,-0.239,-5.432,7.446,3.601
0.879,0.362,-0.229,-5.432,5.737,4.272
0.887,0.377,-0.229,-4.761,4.883,4.150
0.893,0.380,-0.231,-4.578,4.028,4.089
0.888,0.385,-0.235,-4.333,2.808,3.967
0.891,0.392,-0.240,-3.845,2.258,2.441
0.898,0.395,-0.247,-3.235,1.831,0.916
0.896,0.386,-0.254,-3.052,1.343,0.122
0.907,0.380,-0.265,-3.784,0.183,-0.488
0.908,0.369,-0.268,-4.456,-1.160,-0.854
0.913,0.356,-0.273,-5.066,-2.441,-1.343
0.922,0.341,-0.271,-5.066,-3.723,-2.014
0.940,0.332,-0.262,-5.127,-5.249,-2.380
0.951,0.328,-0.249,-5.310,-6.836,-2.197
0.970,0.325,-0.238,-5.859,-7.324,-1.709
0.974,0.320,-0.231,-6.958,-6.836,-1.160
0.983,0.316,-0.225,-7.507,-5.920,-0.610
0.982,0.312,-0.224,-7.080,-5.005,-0.732
0.985,0.304,-0.223,-6.104,-3.601,-1.343
0.983,0.298,-0.219,-5.005,-2.136,-1.953
0.980,0.292,-0.221,-4.578,-1.038,-2.136
0.970,0.290,-0.228,-4.395,0.061,-1.953
0.965,0.287,-0.231,-4.395,1.404,-1.221
0.954,0.288,-0.233,-4.395,1.892,-0.366
0.952,0.299,-0.230,-4.089,2.502,0.427
0.950,0.306,-0.230,-3.418,2.869,0.916
0.941,0.318,-0.240,-3.235,2.991,1.038
0.930,0.321,-0.244,-3.357,2.808,0.427
0.924,0.321,-0.246,-2.930,2.441,-0.549
0.922,0.321,-0.244,-2.197,2.319,-1.526
0.919,0.323,-0.243,-1.831,2.380,-2.075

0.772,-3.623,0.050,25.696,17.212,-378.784
0.552,-4.000,0.023,151.611,60.608,-416.016
0.375,-4.000,-0.463,272.278,74.097,-389.160
0.104,-4.000,-1.190,314.087,68.481,-276.306
-0.157,-4.000,-1.726,252.991,82.703,-102.051
-0.474,-4.000,-2.153,167.847,67.566,69.885
-0.483,-3.619,-2.253,106.140,35.400,207.886
-0.394,-2.898,-2.134,78.308,-6.226,300.842
-0.332,-2.268,-1.881,88.196,-69.580,343.628
-0.385,-1.798,-1.468,124.817,-138.000,348.633
-0.390,-1.411,-1.022,160.950,-196.228,344.421
-0.429,-1.124,-0.449,170.105,-246.155,354.553
-0.464,-0.668,0.177,145.447,-282.654,388.916
-0.358,-0.227,0.925,103.821,-295.959,444.092
-0.143,0.184,1.503,54.443,-280.823,509.888
-0.037,0.725,1.869,16.296,-245.483,571.167
0.122,1.446,2.015,14.221,-183.716,597.534
0.340,2.445,1.704,48.645,-101.257,567.078
0.554,3.340,1.344,88.013,-39.001,469.788
0.631,3.804,1.046,125.549,13.611,322.693
0.677,3.571,0.966,151.306,54.932,168.518
0.576,3.070,0.911,151.428,83.252,58.777
0.388,2.773,0.700,132.446,102.356,-7.690
0.240,2.512,0.436,111.328,104.980,-51.147
0.199,2.266,0.234,89.111,91.553,-75.134
0.210,1.801,0.147,67.017,75.989,-86.426
0.290,1.353,0.027,43.518,58.594,-77.393
0.442,1.208,-0.058,12.207,38.086,-52.246
0.555,1.066,-0.114,-16.235,21.729,-27.832
0.630,0.911,-0.182,-35.522,8.179,-9.827
0.708,0.808,-0.225,-44.983,-3.540,-1.282
0.788,0.735,-0.224,-46.265,-12.329,-1.770
0.842,0.660,-0.223,-41.687,-16.846,-8.057
0.871,0.574,-0.224,-32.593,-17.578,-19.470
0.892,0.480,-0.212,-23.315,-14.771,-30.823
0.903,0.397,-0.198,-18.799,-10.132,-35.522
0.911,0.322,-0.200,-19.592,-6.409,-33.447
0.909,0.282,-0.202,-22.034,-3.601,-26.733
0.910,0.275,-0.207,-23.987,-3.235,-18.982
0.925,0.275,-0.190,-25.330,-4.211,-11.230
0.956,0.273,-0.158,-26.367,-4.944,-4.395
0.979,0.274,-0.128,-27.588,-5.371,-0.122
1.003,0.283,-0.092,-27.405,-5.432,1.892
1.031,0.298,-0.060,-26.123,-4.883,1.099
1.048,0.291,-0.025,-24.048,-3.845,-1.831
1.051,0.263,0.011,-20.569,-1.282,-6.287
1.041,0.231,0.041,-16.174,2.991,-11.536
1.032,0.216,0.047,-11.658,8.728,-15.320
1.018,0.211,0.040,-8.057,14.771,-16.968
0.991,0.221,0.016,-5.859,18.677,-17.273
0.970,0.238,-0.010,-4.578,21.423,-15.503
0.951,0.272,-0.042,-4.944,22.827,-12.207
0.929,0.308,-0.068,-7.019,21.851,-8.484
0.901,0.342,-0.100,-10.071,19.348,-5.493
0.899,0.359,-0.119,-12.756,16.724,-2.930
0.880,0.369,-0.124,-13.611,12.878,-2.808
0.887,0.372,-0.108,-11.292,9.888,-4.761
0.885,0.383,-0.103,-8.179,8.484,-7.507
0.873,0.394,-0.114,-5.981,8.484,-9.216
0.864,0.401,-0.124,-4.456,9.155,-10.193
0.861,0.406,-0.143,-4.517,9.888,-9.766
0.856,0.404,-0.165,-5.371,10.071,-8.606
0.847,0.393,-0.182,-5.981,9.399,-8.057
0.838,0.384,-0.189,-6.042,7.874,-7.507
0.841,0.370,-0.183,-5.371,6.165,-6.226
0.848,0.359,-0.178,-5.249,4.883,-3.845
0.856,0.357,-0.174,-5.432,4.150,-1.221
0.860,0.368,-0.174,-5.981,3.113,1.892
0.867,0.380,-0.175,-6.104,2.136,4.333
0.872,0.386,-0.169,-5.981,1.343,5.798
0.872,0.388,-0.166,-5.981,1.038,6.653
0.876,0.395,-0.158,-6.165,1.282,7.202
0.876,0.398,-0.162,-6.470,1.831,7.751
0.874,0.401,-0.170,-6.348,2.502,8.545
0.870,0.405,-0.180,-5.493,2.563,8.850
0.873,0.408,-0.185,-4.578,1.770,8.301
0.874,0.404,-0.190,-4.456,0.671,7.935
0.875,0.404,-0.195,-4.639,-0.610,8.362
0.887,0.397,-0.185,-4.639,-2.136,8.240
0.893,0.405,-0.177,-4.761,-3.418,8.362
0.898,0.415,-0.167,-5.615,-4.456,9.094
0.906,0.419,-0.159,-6.470,-4.822,9.399
0.912,0.424,-0.152,-6.958,-4.883,9.155
0.916,0.432,-0.151,-6.714,-4.089,8.545
0.913,0.438,-0.150,-5.981,-3.235,7.629
0.916,0.435,-0.151,-5.249,-2.686,6.165
0.911,0.432,-0.153,-4.822,-2.502,4.517
0.911,0.425,-0.153,-3.845,-2.319,2.258
0.914,0.417,-0.153,-3.174,-2.441,0.854
0.908,0.413,-0.153,-3.479,-2.686,0.549
0.909,0.410,-0.150,-3.845,-2.869,0.671
0.916,0.408,-0.142,-3.845,-2.686,0.793
0.923,0.403,-0.131,-3.845,-2.380,0.793
0.929,0.397,-0.123,-3.540,-1.831,0.488
0.923,0.399,-0.126,-3.113,-1.038,-0.244
0.918,0.397,-0.133,-2.625,0.122,-0.549
0.909,0.396,-0.142,-1.831,1.160,-1.038
0.902,0.397,-0.151,-0.916,1.770,-1.282
0.898,0.404,-0.159,-0.366,1.648,-1.465
0.900,0.407,-0.164,-0.977,0.977,-0.977
0.896,0.408,-0.168,-1.892,-0.244,-0.671
0.897,0.409,-0.164,-2.380,-0.977,-0.366
0.901,0.406,-0.157,-2.380,-1.526,-0.793
0.906,0.401,-0.148,-1.770,-1.831,-1.526
0.909,0.393,-0.142,-0.854,-1.953,-2.014
0.912,0.387,-0.135,-0.732,-1.648,-2.380
0.909,0.391,-0.137,-1.221,-1.404,-2.625
0.905,0.394,-0.139,-1.282,-1.282,-2.563
0.907,0.394,-0.137,-0.793,-1.038,-2.991
0.907,0.397,-0.137,-0.244,-0.854,-3.235
0.908,0.396,-0.137,0.061,-0.427,-2.747
0.913,0.396,-0.140,-0.183,-0.183,-2.380
0.911,0.396,-0.147,-0.732,-0.366,-2.136
0.909,0.398,-0.155,-0.977,-0.671,-1.648
0.908,0.396,-0.161,-1.160,-0.977,-1.404
0.910,0.393,-0.159,-1.282,-1.587,-1.404
0.917,0.383,-0.153,-1.587,-2.075,-1.465
0.926,0.378,-0.146,-2.380,-2.197,-0.610
0.918,0.373,-0.147,-3.540,-2.319,0.000

0.410,2.016,0.197,-25.085,38.757,-70.984
0.357,2.129,0.117,-47.241,38.818,-91.858
0.297,2.131,0.076,-72.815,34.180,-115.906
0.241,2.018,0.088,-93.262,26.550,-145.691
0.214,1.832,0.137,-106.262,17.944,-179.138
0.219,1.591,0.220,-119.324,8.362,-209.167
0.238,1.339,0.285,-133.972,1.404,-229.980
0.258,1.075,0.352,-148.865,-2.747,-242.920
0.277,0.818,0.432,-164.490,-6.836,-249.695
0.301,0.578,0.510,-180.969,-8.362,-248.718
0.307,0.365,0.573,-200.378,-8.667,-240.723
0.311,0.166,0.620,-219.849,-7.263,-227.966
0.289,0.004,0.633,-237.854,-4.822,-212.463
0.314,-0.143,0.625,-251.953,-2.869,-197.876
0.402,-0.329,0.580,-265.259,-1.404,-187.256
0.496,-0.596,0.526,-277.222,0.671,-184.631
0.586,-0.991,0.475,-279.602,3.601,-197.144
0.629,-1.536,0.449,-263.550,9.094,-227.661
0.591,-2.291,0.467,-222.595,20.569,-271.057
0.531,-3.164,0.442,-155.945,40.955,-314.392
0.476,-3.917,0.233,-69.214,68.359,-346.008
0.241,-4.000,-0.090,28.748,88.806,-357.788
0.006,-4.000,-0.554,118.103,101.990,-332.031
-0.350,-4.000,-1.099,175.049,103.333,-266.235
-0.502,-4.000,-1.568,189.453,91.125,-161.316
-0.587,-4.000,-1.870,165.466,62.927,-40.039
-0.589,-3.772,-1.998,122.864,16.846,78.308
-0.494,-3.160,-1.937,87.585,-34.241,172.302
-0.395,-2.585,-1.654,78.613,-91.248,229.736
-0.304,-2.147,-1.245,90.149,-145.569,253.052
-0.197,-1.784,-0.880,110.657,-191.040,257.751
-0.103,-1.575,-0.453,124.390,-223.877,259.460
-0.019,-1.398,0.006,123.962,-244.568,270.996
0.109,-1.326,0.519,107.422,-252.258,301.880
0.246,-1.121,0.924,74.341,-242.065,353.088
0.335,-0.829,1.218,38.513,-216.370,415.161
0.376,-0.484,1.342,14.832,-180.481,472.656
0.422,-0.050,1.421,10.681,-140.869,508.606
0.463,0.434,1.510,26.184,-100.647,518.066
0.532,1.003,1.539,63.354,-60.059,493.530
0.649,1.554,1.514,116.394,-20.630,434.814
0.714,2.079,1.467,162.842,13.062,354.004
0.737,2.518,1.383,188.599,40.161,267.090
0.704,2.787,1.187,189.697,64.758,186.523
0.585,2.846,0.936,170.288,88.867,116.028
0.444,2.738,0.653,144.165,109.314,57.007
0.321,2.497,0.389,123.047,118.469,7.385
0.268,2.209,0.213,111.389,114.563,-35.339
0.275,1.903,0.083,103.333,101.868,-67.566
0.313,1.550,0.020,89.844,86.426,-81.970
0.370,1.263,-0.041,68.237,70.496,-80.444
0.427,1.036,-0.103,45.471,56.152,-69.946
0.493,0.825,-0.156,28.320,45.166,-56.580
0.543,0.659,-0.208,16.357,36.499,-44.067
0.602,0.539,-0.248,9.155,28.564,-35.156
0.655,0.447,-0.287,5.981,21.057,-29.358
0.696,0.372,-0.316,4.028,14.343,-25.757
0.732,0.316,-0.325,2.136,9.094,-21.790
0.762,0.271,-0.325,-0.244,5.310,-16.968
0.780,0.238,-0.312,-2.747,2.014,-10.559
0.797,0.213,-0.286,-4.272,-0.427,-3.418
0.830,0.214,-0.260,-5.859,-1.648,4.150
0.851,0.220,-0.232,-8.667,-2.808,12.512
0.880,0.219,-0.204,-11.169,-3.479,19.653
0.886,0.229,-0.172,-11.902,-4.211,24.414
0.893,0.243,-0.135,-11.230,-5.249,27.039
0.906,0.274,-0.100,-9.827,-5.737,28.381
0.914,0.315,-0.072,-7.935,-5.432,28.442
0.928,0.353,-0.053,-6.226,-4.578,27.161
0.943,0.382,-0.042,-5.371,-3.357,24.902
0.946,0.405,-0.039,-4.944,-2.686,21.179
0.947,0.417,-0.025,-4.456,-2.380,16.357
0.945,0.421,-0.012,-4.333,-2.197,11.780
0.940,0.421,-0.005,-4.456,-2.014,8.423
0.935,0.425,-0.004,-4.822,-1.770,5.127
0.943,0.426,-0.009,-5.493,-1.221,2.258
0.951,0.413,-0.018,-6.165,-0.916,-0.427
0.960,0.397,-0.024,-6.470,-0.793,-2.869
0.965,0.377,-0.033,-5.554,-0.366,-5.737
0.986,0.355,-0.035,-4.456,0.427,-8.606
0.987,0.337,-0.064,-4.272,-0.427,-10.742
0.985,0.317,-0.063,-4.150,0.244,-12.024
0.990,0.302,-0.077,-3.845,0.549,-12.878
0.992,0.290,-0.095,-3.540,1.221,-13.123
1.003,0.277,-0.098,-3.540,2.197,-13.245
1.001,0.252,-0.103,-3.723,2.136,-13.062
0.995,0.232,-0.099,-3.967,2.991,-12.207
0.984,0.219,-0.095,-3.662,3.967,-10.620
0.966,0.217,-0.101,-3.174,5.127,-8.423
0.951,0.225,-0.114,-2.686,5.676,-5.615
0.937,0.231,-0.126,-2.625,5.493,-2.686
0.932,0.252,-0.132,-1.892,4.883,-0.732
0.922,0.280,-0.139,-0.854,4.028,0.916
0.914,0.300,-0.140,-0.122,2.991,2.197
0.908,0.328,-0.145,-0.549,1.770,3.235
0.902,0.341,-0.144,-2.014,1.099,4.272
0.901,0.340,-0.127,-3.418,-0.183,4.395
0.911,0.341,-0.105,-3.601,-0.977,4.028
0.917,0.341,-0.091,-2.869,-1.343,3.845
0.923,0.353,-0.085,-2.563,-1.404,3.357
0.928,0.358,-0.087,-2.380,-1.465,2.930
0.931,0.361,-0.091,-2.930,-1.648,2.197
0.937,0.350,-0.088,-3.418,-2.014,1.282
0.944,0.333,-0.080,-3.357,-2.197,-0.122
0.945,0.319,-0.076,-2.014,-2.136,-1.648
0.955,0.310,-0.077,-0.061,-1.465,-2.380
0.957,0.306,-0.084,0.305,-0.488,-1.953
0.959,0.309,-0.094,-0.977,0.000,-0.916
0.957,0.310,-0.102,-2.075,0.183,0.183
0.956,0.307,-0.105,-2.197,0.366,0.366
0.951,0.301,-0.108,-1.648,0.427,0.610
0.954,0.301,-0.112,-1.587,0.610,0.610
0.948,0.303,-0.117,-1.831,0.732,1.282
0.946,0.304,-0.115,-2.197,0.366,1.587
0.948,0.302,-0.110,-1.953,0.122,1.343
0.951,0.302,-0.101,-1.221,0.122,1.038
0.953,0.303,-0.096,-0.610,0.427,0.977
0.950,0.307,-0.092,-0.671,0.732,1.282
0.946,0.315,-0.089,-1.099,1.221,2.258

0.282,-2.993,0.179,-151.062,26.367,-304.810
0.297,-3.695,-0.004,-77.454,46.509,-330.139
0.003,-4.000,-0.183,-6.653,72.021,-338.928
-0.237,-4.000,-0.512,64.880,83.130,-314.636
-0.430,-4.000,-1.027,130.798,64.392,-249.512
-0.577,-4.000,-1.404,155.823,41.382,-155.090
-0.624,-4.000,-1.663,141.968,13.794,-42.114
-0.615,-3.998,-1.771,114.563,-22.766,67.017
-0.519,-3.570,-1.647,94.971,-61.829,152.527
-0.405,-3.116,-1.310,92.957,-106.628,207.581
-0.292,-2.753,-0.862,108.765,-154.053,236.328
-0.166,-2.476,-0.384,132.324,-193.604,252.625
-0.067,-2.242,0.131,144.470,-219.788,272.095
0.037,-1.969,0.666,137.695,-230.835,306.274
0.157,-1.778,1.215,117.126,-223.999,360.596
0.246,-1.567,1.645,88.318,-198.303,433.105
0.226,-1.108,1.872,57.922,-159.729,516.357
0.139,-0.567,1.921,40.405,-119.690,590.759
0.027,0.067,1.924,41.687,-79.956,637.573
-0.025,0.796,1.937,63.416,-36.987,643.005
0.046,1.492,1.914,108.887,5.371,602.295
0.173,2.261,1.726,159.912,44.373,522.400
0.269,2.988,1.395,193.481,78.735,418.152
0.353,3.454,0.953,197.083,106.384,302.002
0.336,3.522,0.533,166.992,126.404,195.374
0.181,3.208,0.212,125.610,141.235,106.995
0.010,2.765,-0.022,99.060,143.860,31.311
-0.055,2.298,-0.144,92.102,129.272,-34.790
-0.053,1.801,-0.180,90.637,106.018,-82.947
-0.006,1.339,-0.187,85.632,82.153,-103.516
0.044,1.007,-0.223,74.158,61.707,-100.098
0.139,0.770,-0.287,57.678,44.739,-83.801
0.243,0.557,-0.359,41.565,30.151,-60.242
0.363,0.444,-0.418,29.419,16.113,-37.537
0.477,0.388,-0.455,22.217,2.319,-21.057
0.586,0.312,-0.426,19.226,-10.376,-11.414
0.667,0.231,-0.386,17.273,-21.912,-5.554
0.723,0.159,-0.321,15.747,-29.724,-0.183
0.782,0.120,-0.257,14.526,-33.569,7.141
0.815,0.116,-0.191,13.794,-33.020,16.113
0.852,0.154,-0.175,13.123,-28.564,25.635
0.875,0.227,-0.178,11.292,-22.400,34.241
0.893,0.303,-0.189,9.583,-17.578,40.405
0.904,0.370,-0.187,8.301,-13.794,44.006
0.919,0.425,-0.166,7.568,-12.512,43.701
0.928,0.474,-0.142,6.531,-12.939,41.077
0.944,0.507,-0.114,4.944,-13.184,37.842
0.954,0.529,-0.072,2.930,-12.573,34.485
0.960,0.545,-0.031,0.061,-11.230,31.067
0.974,0.562,-0.003,-2.502,-9.155,28.381
0.990,0.574,0.018,-3.723,-6.897,24.353
1.007,0.575,0.032,-2.991,-4.456,17.578
1.021,0.570,0.038,-1.648,-2.136,9.460
1.027,0.547,0.045,0.000,0.366,1.343
1.026,0.513,0.041,0.977,3.418,-5.493
1.021,0.477,0.026,1.404,6.287,-10.986
1.015,0.444,0.005,1.221,9.277,-13.977
1.007,0.426,-0.025,0.427,11.108,-15.137
1.001,0.418,-0.056,-1.526,12.146,-14.832
1.001,0.413,-0.079,-3.662,12.390,-13.489
0.985,0.401,-0.103,-5.127,11.963,-12.451
0.979,0.383,-0.103,-5.493,12.268,-12.756
0.965,0.377,-0.118,-5.005,10.986,-14.160
0.953,0.364,-0.120,-4.578,10.559,-15.564
0.939,0.353,-0.121,-4.517,10.925,-15.930
0.929,0.344,-0.128,-4.639,10.681,-15.198
0.918,0.343,-0.136,-4.578,9.338,-14.648
0.917,0.340,-0.134,-4.578,8.362,-13.977
0.911,0.341,-0.145,-4.883,6.958,-13.245
0.908,0.333,-0.142,-5.920,6.897,-12.024
0.902,0.329,-0.139,-7.141,6.592,-10.925
0.896,0.325,-0.135,-7.446,5.676,-9.827
0.892,0.325,-0.134,-7.324,4.578,-8.789
0.895,0.327,-0.130,-7.019,3.479,-8.057
0.896,0.328,-0.128,-6.592,2.808,-7.751
0.909,0.330,-0.123,-5.981,2.441,-7.935
0.911,0.320,-0.114,-5.432,1.831,-8.301
0.915,0.313,-0.111,-5.798,2.014,-7.935
0.924,0.295,-0.105,-6.165,4.028,-6.958
0.929,0.275,-0.103,-6.470,4.822,-6.165
0.927,0.256,-0.102,-6.165,4.456,-5.249
0.924,0.248,-0.107,-5.371,4.089,-4.089
0.927,0.251,-0.115,-4.761,3.479,-2.563
0.931,0.263,-0.121,-4.211,2.625,-0.610
