aX,aY,aZ,gX,gY,gZ
0.155,-0.076,2.343,-23.865,-92.773,-3.235
0.185,-0.063,2.345,-33.875,-120.178,-8.362
0.208,-0.025,2.314,-41.809,-145.264,-13.245
0.266,0.006,2.282,-45.898,-166.077,-16.541
0.317,0.021,2.258,-47.607,-180.969,-17.334
0.354,0.037,2.248,-44.800,-191.833,-15.625
0.416,0.066,2.250,-37.109,-200.806,-12.634
0.457,0.065,2.234,-28.870,-207.397,-8.911
0.494,0.051,2.208,-28.748,-212.830,-4.944
0.491,0.032,2.134,-36.377,-218.323,-2.991
0.473,0.032,2.083,-47.852,-227.600,-2.563
0.413,-0.011,1.962,-55.237,-245.667,-2.014
0.410,-0.028,1.777,-55.908,-271.790,-1.648
0.419,-0.009,1.591,-47.485,-297.974,-2.563
0.484,0.033,1.503,-30.945,-315.613,-3.601
0.472,0.044,1.469,-13.245,-323.486,-1.465
0.408,0.019,1.368,-2.197,-329.102,1.465
0.414,0.035,1.288,-2.991,-339.539,0.610
0.396,0.050,1.136,-6.226,-352.417,-4.089
0.405,0.112,0.944,-12.268,-367.493,-11.658
0.479,0.205,0.772,-19.226,-381.836,-20.325
0.483,0.266,0.617,-22.156,-392.151,-25.513
0.449,0.288,0.348,-22.644,-403.625,-26.855
0.500,0.318,0.072,-26.917,-422.180,-26.245
0.562,0.301,-0.246,-30.457,-440.552,-24.780
0.630,0.280,-0.518,-35.522,-452.454,-20.935
0.661,0.306,-0.708,-41.260,-455.383,-13.550
0.557,0.249,-0.927,-44.189,-449.158,-3.723
0.536,0.130,-1.145,-49.988,-439.331,4.822
0.529,0.021,-1.414,-55.908,-422.974,8.240
0.524,-0.075,-1.740,-60.425,-395.020,7.202
0.478,-0.096,-2.158,-73.242,-355.713,3.784
0.382,-0.154,-2.649,-95.642,-297.974,3.357
0.304,-0.198,-3.135,-129.272,-209.045,14.221
0.056,-0.130,-3.213,-161.560,-91.064,37.109
-0.076,-0.060,-2.749,-145.264,16.846,60.669
-0.177,-0.185,-2.113,-66.772,81.177,68.298
-0.322,-0.240,-1.442,24.719,105.957,63.538
-0.536,-0.195,-0.817,86.121,100.647,53.284
-0.752,-0.160,-0.382,115.845,83.618,36.682
-0.903,-0.172,-0.145,121.338,75.684,15.564
-1.044,-0.137,0.017,104.248,76.233,-0.854
-1.098,-0.061,0.138,78.247,80.505,-10.193
-1.095,-0.011,0.204,58.228,85.815,-13.977
-1.109,0.013,0.242,48.218,84.717,-13.245
-1.089,0.025,0.240,42.236,75.439,-12.146
-1.061,0.073,0.192,31.677,64.453,-12.268
-1.044,0.111,0.125,18.799,54.626,-13.428
-1.023,0.155,0.083,6.653,45.227,-15.564
-1.006,0.188,0.064,-0.366,34.180,-17.761
-1.005,0.235,0.081,-0.488,24.353,-17.761
-1.020,0.271,0.104,6.531,18.005,-14.465
-1.016,0.293,0.123,15.442,15.442,-9.766
-1.023,0.297,0.141,21.057,15.625,-4.944
-1.034,0.282,0.147,21.423,18.372,-0.732
-1.023,0.262,0.169,17.273,20.813,2.686
-1.022,0.228,0.181,11.047,21.790,4.272
-1.026,0.203,0.195,3.967,21.057,5.249
-1.022,0.173,0.201,-1.282,18.250,5.737
-1.018,0.150,0.187,-2.991,11.536,5.676
-1.025,0.141,0.153,-0.977,3.357,5.249
-1.012,0.133,0.124,1.770,-2.747,4.456
-1.008,0.131,0.101,2.869,-6.165,3.174
-1.004,0.153,0.092,1.099,-5.615,1.648
-0.994,0.163,0.099,-1.160,-1.221,-0.061
-0.979,0.168,0.115,-3.235,4.639,-1.526
-0.965,0.181,0.131,-4.944,8.423,-1.953
-0.956,0.191,0.132,-6.714,8.362,-2.136
-0.951,0.185,0.120,-7.874,4.517,-1.648
-0.954,0.173,0.088,-7.080,-1.099,-0.122
-0.960,0.162,0.056,-4.028,-6.653,1.587
-0.967,0.154,0.023,0.122,-11.230,2.502
-0.977,0.149,-0.005,3.784,-13.000,3.540
-0.982,0.148,-0.025,5.554,-12.573,3.540
-0.986,0.141,-0.044,6.042,-10.071,3.174
-0.984,0.138,-0.058,5.615,-6.531,2.563
-0.984,0.140,-0.063,5.310,-3.540,1.770
-0.987,0.145,-0.062,4.944,-1.343,1.038
-0.988,0.150,-0.047,4.333,0.977,0.916
-0.990,0.151,-0.025,3.479,1.953,1.160
-0.987,0.154,-0.012,2.686,1.221,1.709
-0.985,0.156,-0.008,1.770,-0.854,2.014
-0.982,0.165,-0.006,0.305,-3.052,1.953
-0.984,0.168,-0.014,-1.160,-4.089,1.892
-0.986,0.180,-0.020,-3.113,-3.296,2.563
-0.981,0.183,-0.016,-4.456,-2.014,2.747
-0.978,0.186,-0.008,-6.042,-0.183,2.930
-0.973,0.187,0.001,-7.385,1.038,3.479
-0.971,0.181,0.012,-7.690,0.793,3.418
-0.966,0.168,0.014,-7.507,0.061,3.235
-0.974,0.169,0.028,-6.897,-0.793,3.784
-0.965,0.149,0.024,-6.348,-1.343,4.211
-0.979,0.151,0.030,-6.958,-2.563,5.188
-0.981,0.134,0.026,-5.798,-3.784,5.615
-0.993,0.130,0.026,-4.333,-5.066,5.920
-0.994,0.127,0.015,-2.747,-5.920,5.249
-0.997,0.128,0.004,-1.709,-5.798,4.456
-0.992,0.135,-0.002,-1.282,-4.639,3.357
-0.989,0.142,-0.011,-0.366,-3.052,2.319
-0.983,0.146,-0.018,1.343,-1.465,1.404
-0.979,0.152,-0.019,3.296,0.061,1.465
-0.971,0.151,-0.014,5.920,1.038,1.831
-0.972,0.147,-0.014,7.812,1.770,2.686
-0.973,0.146,-0.016,7.812,1.648,3.052
-0.970,0.141,-0.026,7.629,1.282,2.869
-0.973,0.141,-0.036,7.996,0.977,2.686
-0.974,0.143,-0.043,8.057,1.221,2.258
-0.971,0.145,-0.046,7.141,2.563,1.953
-0.972,0.144,-0.038,6.348,4.517,1.648
-0.973,0.146,-0.025,5.798,6.592,1.221
-0.974,0.151,-0.011,5.066,8.118,1.099
-0.972,0.151,-0.001,4.639,8.423,0.977
-0.974,0.153,0.005,4.517,7.690,1.221
-0.971,0.151,0.011,3.601,6.042,1.282
-0.981,0.148,0.004,2.686,4.578,1.709
-0.982,0.157,0.009,0.732,3.052,1.831
-0.976,0.143,0.004,-0.427,1.465,1.709
-0.978,0.155,0.001,-1.404,1.038,1.404
-0.982,0.160,0.007,-2.319,-0.305,1.770

0.148,-0.099,2.552,9.705,-55.969,4.761
0.134,-0.100,2.534,1.709,-90.881,-1.831
0.149,-0.109,2.496,-12.085,-123.535,-7.690
0.155,-0.131,2.443,-29.358,-146.790,-12.756
0.185,-0.130,2.431,-47.485,-161.865,-16.907
0.216,-0.125,2.466,-61.646,-172.974,-20.630
0.242,-0.118,2.500,-68.970,-185.730,-23.376
0.272,-0.103,2.467,-69.519,-203.003,-25.635
0.344,-0.044,2.387,-63.904,-224.182,-27.771
0.402,0.029,2.279,-54.565,-246.460,-29.236
0.449,0.099,2.137,-46.570,-269.531,-27.771
0.479,0.140,1.939,-48.767,-292.847,-22.339
0.497,0.118,1.705,-60.303,-314.270,-16.113
0.466,0.082,1.448,-74.158,-330.933,-10.986
0.415,0.040,1.156,-81.360,-342.712,-8.728
0.370,0.045,0.881,-81.909,-350.403,-8.911
0.344,0.099,0.735,-77.026,-355.774,-8.179
0.282,0.087,0.540,-62.866,-355.591,-4.517
0.281,0.117,0.417,-50.964,-357.910,0.305
0.301,0.177,0.433,-42.297,-366.394,6.653
0.288,0.097,0.316,-31.494,-380.127,12.329
0.317,0.122,0.203,-28.809,-400.940,12.512
0.406,0.205,0.157,-29.236,-421.814,5.615
0.392,0.173,-0.033,-30.029,-437.805,-3.540
0.464,0.209,-0.275,-42.297,-451.416,-11.108
0.475,0.196,-0.550,-55.176,-451.538,-16.174
0.414,0.152,-0.842,-63.293,-430.542,-15.259
0.336,0.114,-1.158,-65.857,-400.879,-9.644
0.273,0.077,-1.405,-66.711,-367.981,-7.812
0.216,-0.015,-1.650,-67.139,-326.721,-7.263
0.180,-0.126,-1.836,-70.007,-282.959,-3.052
0.167,-0.221,-1.970,-75.684,-240.662,2.563
0.109,-0.302,-2.063,-78.796,-198.242,9.216
-0.003,-0.366,-2.146,-78.796,-152.405,16.785
-0.173,-0.347,-2.139,-81.787,-102.417,24.231
-0.362,-0.280,-1.987,-79.834,-46.753,33.264
-0.534,-0.143,-1.649,-60.181,2.991,39.917
-0.715,-0.053,-1.154,-21.179,38.513,42.175
-0.872,0.041,-0.603,24.658,57.922,41.260
-1.022,0.066,-0.075,61.829,57.800,36.194
-1.105,0.094,0.272,81.421,41.992,26.428
-1.176,0.155,0.361,84.473,17.090,13.672
-1.233,0.239,0.277,75.806,-11.292,0.061
-1.205,0.267,0.136,62.256,-33.997,-10.986
-1.155,0.285,-0.100,48.218,-41.626,-18.127
-1.089,0.318,-0.265,34.180,-39.490,-19.409
-0.996,0.317,-0.357,24.841,-29.602,-16.663
-0.925,0.258,-0.487,24.597,-14.160,-12.268
-0.887,0.235,-0.551,19.043,2.686,-8.728
-0.865,0.234,-0.523,7.996,21.545,-5.920
-0.859,0.226,-0.393,-1.282,36.804,-2.930
-0.885,0.209,-0.207,-6.165,41.199,0.671
-0.897,0.190,-0.042,-6.104,34.729,5.676
-0.951,0.177,0.030,-0.366,23.621,10.620
-1.017,0.184,0.051,6.714,12.634,14.526
-1.057,0.171,0.049,10.193,5.737,16.235
-1.086,0.150,0.051,7.446,3.601,15.503
-1.094,0.139,0.053,1.770,3.906,12.939
-1.084,0.127,0.039,-1.770,3.845,9.521
-1.059,0.123,0.004,-2.625,2.075,6.897
-1.028,0.124,-0.043,-3.052,-1.221,4.272
-0.997,0.130,-0.082,-3.906,-3.601,2.625
-0.978,0.127,-0.121,-5.615,-5.554,1.892
-0.952,0.138,-0.150,-8.850,-7.080,2.014
-0.939,0.148,-0.188,-9.033,-8.301,2.869
-0.931,0.157,-0.222,-6.348,-9.094,4.456
-0.927,0.163,-0.248,-3.357,-8.606,6.348
-0.926,0.167,-0.257,-0.671,-5.615,7.812
-0.928,0.168,-0.255,1.953,-1.221,8.301
-0.937,0.172,-0.240,3.906,3.296,7.935
-0.940,0.168,-0.223,5.127,7.446,6.348
-0.941,0.172,-0.202,6.226,9.583,4.761
-0.933,0.170,-0.192,7.080,8.972,3.479
-0.935,0.178,-0.195,7.812,6.714,2.625
-0.938,0.183,-0.201,8.545,4.639,2.441
-0.948,0.182,-0.209,9.033,4.639,2.136
-0.951,0.183,-0.211,8.606,5.493,1.404
-0.951,0.184,-0.212,7.446,6.775,0.427
-0.952,0.185,-0.213,6.348,7.935,-0.488
-0.951,0.183,-0.210,5.432,8.789,-0.977
-0.947,0.179,-0.202,4.517,9.155,-1.282
-0.937,0.179,-0.192,4.028,8.423,-1.099
-0.936,0.183,-0.178,3.601,6.714,-0.977
-0.946,0.188,-0.163,1.099,4.639,-0.610
-0.953,0.192,-0.147,-2.197,1.892,-0.305
-0.964,0.196,-0.147,-3.723,-0.305,-0.488
-0.976,0.202,-0.152,-3.723,-1.465,-0.122
-0.985,0.198,-0.158,-3.296,-1.221,0.610
-0.986,0.189,-0.156,-2.441,-0.549,1.526
-0.985,0.177,-0.156,-1.343,0.305,2.075
-0.988,0.169,-0.158,-0.854,1.282,2.136
-0.985,0.163,-0.160,-0.793,1.953,1.831
-0.984,0.163,-0.157,-0.916,2.686,1.160
-0.979,0.164,-0.152,-0.793,3.540,0.244
-0.973,0.171,-0.151,-1.038,3.906,-0.916
-0.970,0.179,-0.151,-1.587,3.662,-1.648
-0.971,0.194,-0.154,-1.282,2.869,-1.587
-0.971,0.202,-0.161,0.122,2.136,-0.793
-0.965,0.206,-0.171,1.770,1.770,0.610
-0.964,0.204,-0.182,3.662,1.770,1.831
-0.959,0.199,-0.187,4.944,2.563,2.991
-0.955,0.188,-0.186,5.188,4.150,3.479
-0.953,0.177,-0.182,4.395,5.310,3.662
-0.947,0.175,-0.171,3.235,5.676,3.235
-0.941,0.169,-0.167,2.686,5.554,2.808
-0.938,0.168,-0.165,2.014,5.127,2.625
-0.941,0.171,-0.160,0.977,4.333,2.258
-0.947,0.173,-0.156,0.549,3.967,2.075
-0.946,0.172,-0.160,0.610,4.028,2.686
-0.942,0.176,-0.166,0.793,3.479,2.808
-0.942,0.178,-0.175,1.221,2.686,2.869
-0.948,0.186,-0.179,1.099,2.258,2.380
-0.950,0.189,-0.185,0.061,2.747,1.953
-0.958,0.191,-0.180,-1.282,3.723,1.770
-0.958,0.184,-0.170,-2.136,4.639,1.953
-0.968,0.182,-0.159,-2.808,4.456,2.014
-0.976,0.181,-0.144,-2.808,2.991,2.136
-0.980,0.173,-0.140,-0.854,2.319,2.136
-0.980,0.174,-0.130,-0.061,0.793,1.770

-0.031,-0.212,2.496,-17.639,-99.670,4.578
0.002,-0.227,2.595,-37.781,-125.427,-5.676
-0.012,-0.219,2.680,-49.377,-145.386,-16.663
0.000,-0.173,2.786,-54.688,-166.321,-23.865
0.016,-0.139,2.877,-55.969,-191.406,-27.954
0.035,-0.123,2.842,-53.223,-220.276,-31.921
0.140,-0.048,2.830,-49.744,-248.718,-34.790
0.197,0.000,2.830,-48.340,-273.437,-35.156
0.214,-0.028,2.698,-53.284,-294.678,-34.119
0.261,-0.068,2.506,-68.298,-313.477,-33.691
0.273,-0.086,2.279,-86.670,-327.332,-36.072
0.267,-0.094,1.961,-103.210,-339.783,-40.588
0.307,-0.054,1.623,-117.493,-351.318,-45.349
0.347,0.044,1.460,-121.460,-356.812,-46.387
0.345,0.061,1.239,-108.459,-359.558,-40.649
0.349,0.124,1.010,-91.309,-365.845,-30.334
0.372,0.141,0.796,-73.792,-371.033,-19.470
0.389,0.092,0.570,-59.753,-375.000,-10.254
0.462,0.136,0.461,-54.932,-378.113,-2.747
0.546,0.210,0.482,-48.279,-378.052,4.028
0.538,0.166,0.319,-36.377,-381.531,10.376
0.566,0.208,0.102,-33.081,-393.677,13.977
0.653,0.245,-0.116,-34.668,-406.921,13.123
0.687,0.242,-0.391,-37.292,-412.537,8.423
0.709,0.243,-0.726,-44.128,-407.471,2.625
0.689,0.218,-1.089,-54.932,-389.893,-1.526
0.651,0.150,-1.423,-66.650,-363.770,-1.831
0.629,0.073,-1.661,-74.768,-332.825,0.549
0.513,-0.106,-1.879,-73.364,-299.072,7.507
0.426,-0.267,-2.075,-66.406,-267.029,19.714
0.388,-0.414,-2.295,-53.833,-236.328,32.715
0.310,-0.539,-2.519,-39.185,-196.167,42.969
0.195,-0.561,-2.671,-38.025,-134.338,49.561
-0.074,-0.498,-2.540,-56.030,-51.758,54.382
-0.418,-0.339,-1.947,-81.665,31.982,57.922
-0.611,-0.185,-1.138,-69.458,79.163,55.054
-0.783,-0.201,-0.523,-4.395,87.891,41.016
-0.998,-0.138,-0.084,54.932,75.439,24.353
-1.156,0.060,0.165,78.247,63.354,11.536
-1.241,0.195,0.349,84.961,54.932,-0.793
-1.286,0.193,0.434,86.182,40.588,-13.184
-1.213,0.172,0.341,75.317,23.560,-23.621
-1.127,0.224,0.107,55.908,4.395,-27.954
-1.023,0.248,-0.172,41.382,-13.794,-27.771
-0.960,0.229,-0.412,31.189,-24.719,-25.391
-0.935,0.238,-0.558,21.606,-22.644,-20.569
-0.918,0.243,-0.589,8.301,-5.493,-14.282
-0.922,0.244,-0.488,-5.676,15.869,-6.348
-0.925,0.226,-0.341,-10.925,30.334,-0.244
-0.963,0.217,-0.169,-9.216,34.729,6.226
-1.003,0.200,-0.014,-1.526,29.419,12.024
-1.033,0.170,0.058,9.583,20.874,15.991
-1.062,0.152,0.078,16.052,13.855,17.456
-1.079,0.139,0.088,14.343,10.010,15.198
-1.075,0.125,0.095,8.423,8.911,9.888
-1.054,0.115,0.087,1.282,7.568,4.333
-1.026,0.121,0.045,-4.211,3.906,-0.244
-0.986,0.132,-0.006,-6.775,-0.854,-2.502
-0.955,0.146,-0.064,-6.775,-4.517,-2.930
-0.937,0.152,-0.098,-6.531,-6.653,-2.136
-0.925,0.149,-0.116,-8.301,-6.958,-0.793
-0.924,0.144,-0.126,-11.230,-4.822,0.854
-0.928,0.143,-0.145,-12.512,-2.441,2.014
-0.917,0.128,-0.161,-11.108,-1.648,2.808
-0.917,0.128,-0.191,-8.728,-1.831,3.784
-0.925,0.119,-0.223,-5.676,-1.953,4.700
-0.937,0.116,-0.245,-3.784,14.771,4.883
-0.954,0.117,-0.238,0.610,6.226,4.456
-0.961,0.119,-0.218,4.272,9.033,3.784
-0.966,0.129,-0.200,8.301,10.254,3.601
-0.976,0.141,-0.187,11.780,9.888,3.357
-0.981,0.153,-0.175,13.550,9.888,3.174
-0.985,0.163,-0.167,14.282,11.047,2.808
-0.976,0.175,-0.155,14.160,12.390,2.197
-0.969,0.182,-0.143,13.428,13.672,1.648
-0.965,0.193,-0.131,11.719,14.893,1.038
-0.954,0.192,-0.125,9.094,15.625,0.671
-0.945,0.187,-0.123,5.920,15.259,0.305
-0.949,0.184,-0.121,2.747,13.977,0.244
-0.950,0.185,-0.118,-0.183,12.390,-0.122
-0.957,0.177,-0.121,-2.869,10.620,-0.305
-0.958,0.171,-0.123,-4.578,8.789,-0.244
-0.971,0.171,-0.109,-5.310,6.531,0.305
-0.975,0.162,-0.097,-5.066,4.089,0.977
-0.973,0.153,-0.093,-4.211,2.197,2.075
-0.979,0.145,-0.094,-3.601,0.854,2.991
-0.986,0.136,-0.101,-3.235,0.366,2.869
-0.987,0.130,-0.107,-3.357,0.366,1.831
-0.988,0.135,-0.115,-3.357,0.549,0.183
-0.988,0.148,-0.120,-2.869,0.916,-1.343
-0.979,0.156,-0.123,-2.319,1.038,-1.953
-0.975,0.172,-0.121,-1.587,1.404,-1.038
-0.975,0.168,-0.120,0.610,1.221,0.000
-0.973,0.171,-0.123,2.747,1.404,1.038
-0.974,0.172,-0.128,4.028,1.343,1.831
-0.972,0.170,-0.134,4.822,1.648,2.380
-0.972,0.164,-0.136,5.554,2.380,2.991
-0.972,0.158,-0.140,6.592,3.357,3.662
-0.972,0.152,-0.141,7.324,4.150,3.662
-0.974,0.149,-0.137,7.385,5.371,2.869
-0.975,0.147,-0.128,7.202,6.897,2.014
-0.969,0.147,-0.120,6.592,7.996,0.977
-0.968,0.157,-0.105,5.676,8.484,0.122
-0.967,0.161,-0.099,4.639,8.728,-0.122
-0.959,0.167,-0.096,3.906,7.751,0.366
-0.955,0.167,-0.104,3.723,6.042,1.404
-0.952,0.166,-0.116,3.662,4.517,2.686
-0.952,0.158,-0.125,3.601,3.418,3.723
-0.955,0.152,-0.130,2.869,2.930,3.967
-0.958,0.149,-0.134,2.075,3.174,3.723
-0.962,0.150,-0.130,0.305,4.211,2.869
-0.969,0.152,-0.119,-1.892,5.493,1.709
-0.970,0.154,-0.110,-3.723,6.226,1.038
-0.974,0.158,-0.105,-4.150,5.920,1.160
-0.980,0.161,-0.106,-3.723,5.188,1.465
-0.983,0.166,-0.101,-2.869,4.395,2.380
-0.990,0.163,-0.100,-1.953,3.906,3.052
-0.990,0.161,-0.095,-1.587,2.991,3.174
-0.989,0.162,-0.094,-1.282,2.319,2.563

0.078,-0.340,2.181,-42.480,-64.819,-17.395
0.084,-0.280,2.163,-62.439,-86.792,-32.471
0.112,-0.198,2.125,-79.956,-109.558,-43.152
0.127,-0.128,2.078,-88.135,-128.967,-48.767
0.140,-0.091,2.031,-86.914,-145.630,-48.828
0.173,-0.057,2.026,-81.909,-159.912,-44.983
0.207,-0.019,2.117,-73.364,-171.814,-38.391
0.193,-0.016,2.197,-63.232,-184.875,-31.189
0.187,0.002,2.209,-59.326,-203.247,-26.489
0.233,0.048,2.219,-62.744,-225.647,-25.391
0.243,0.051,2.153,-71.106,-249.084,-26.550
0.245,0.040,1.985,-81.787,-270.752,-28.015
0.277,0.091,1.856,-93.994,-291.626,-28.687
0.252,0.084,1.675,-98.572,-309.509,-27.893
0.219,0.097,1.464,-97.107,-324.768,-24.414
0.204,0.154,1.338,-88.867,-335.449,-20.264
0.157,0.171,1.194,-70.496,-340.881,-14.282
0.120,0.165,1.026,-51.392,-346.741,-7.874
0.141,0.203,0.889,-39.673,-356.628,-3.052
0.174,0.253,0.833,-28.381,-365.784,2.014
0.181,0.204,0.706,-17.334,-371.155,7.080
0.195,0.203,0.555,-16.724,-376.282,10.376
0.222,0.241,0.456,-20.752,-380.066,11.047
0.265,0.275,0.396,-23.621,-379.211,9.583
0.276,0.287,0.310,-27.710,-375.916,8.789
0.272,0.275,0.124,-36.255,-379.578,8.789
0.341,0.278,-0.057,-44.067,-388.733,6.775
0.383,0.288,-0.187,-44.312,-392.578,4.089
0.369,0.221,-0.398,-41.016,-386.536,4.272
0.357,0.222,-0.666,-41.077,-377.136,8.484
0.330,0.167,-0.965,-41.504,-364.136,12.390
0.317,0.056,-1.249,-43.579,-345.581,15.564
0.299,-0.051,-1.526,-49.377,-321.289,17.639
0.254,-0.180,-1.789,-59.326,-288.757,18.616
0.192,-0.274,-1.989,-72.693,-246.582,20.325
0.088,-0.338,-2.112,-82.336,-191.223,24.536
-0.026,-0.433,-2.142,-83.130,-127.014,35.583
-0.329,-0.425,-1.795,-76.355,-4.028,38.696
-0.474,-0.311,-1.296,-65.979,44.434,40.955
-0.646,-0.235,-0.772,-38.086,69.702,42.114
-0.829,-0.169,-0.293,-2.869,67.566,38.574
-0.999,-0.105,0.049,27.649,45.349,29.297
-1.131,-0.012,0.216,45.776,19.104,17.578
-1.203,0.078,0.229,51.697,-1.160,4.761
-1.221,0.135,0.129,50.964,-15.320,-7.263
-1.180,0.144,-0.034,48.584,-23.132,-18.372
-1.116,0.164,-0.226,42.725,-24.963,-26.550
-1.050,0.187,-0.409,35.034,-21.423,-31.006
-0.961,0.200,-0.510,27.466,-12.024,-30.884
-0.883,0.196,-0.545,21.790,0.305,-26.855
-0.829,0.202,-0.504,15.930,12.878,-19.653
-0.827,0.192,-0.433,11.047,21.851,-10.498
-0.866,0.187,-0.348,6.409,25.024,-1.770
-0.922,0.176,-0.257,4.456,23.926,5.066
-0.980,0.179,-0.148,4.700,20.264,9.888
-1.027,0.164,-0.065,6.409,16.235,12.878
-1.071,0.149,-0.008,7.935,13.672,14.282
-1.097,0.130,0.023,7.263,11.780,14.343
-1.099,0.110,0.041,5.432,9.338,12.939
-1.092,0.101,0.052,2.686,5.310,10.132
-1.078,0.096,0.034,-1.160,0.305,6.653
-1.056,0.112,-0.003,-4.700,-5.493,3.174
-1.024,0.124,-0.066,-6.165,-11.230,0.549
-0.979,0.132,-0.141,-5.859,-15.564,-0.610
-0.941,0.140,-0.221,-6.653,-18.005,-0.854
-0.911,0.149,-0.281,-8.484,-17.944,-0.977
-0.894,0.158,-0.313,-9.766,-14.526,-0.549
-0.888,0.153,-0.315,-9.521,-8.972,0.366
-0.890,0.149,-0.303,-8.118,-3.845,2.136
-0.897,0.147,-0.282,-5.737,-0.122,4.028
-0.911,0.150,-0.252,-2.563,4.883,5.493
-0.932,0.153,-0.213,2.258,6.348,4.944
-0.940,0.152,-0.196,3.357,7.324,4.456
-0.942,0.150,-0.196,4.395,7.202,4.089
-0.943,0.151,-0.200,6.409,6.287,4.150
-0.943,0.150,-0.211,8.667,5.737,4.211
-0.935,0.144,-0.223,10.010,5.798,3.723
-0.934,0.143,-0.238,9.827,6.042,2.686
-0.940,0.138,-0.244,8.484,7.263,1.648
-0.945,0.130,-0.250,6.165,8.789,0.305
-0.948,0.129,-0.249,4.089,9.949,-1.038
-0.948,0.131,-0.241,3.357,10.559,-1.953
-0.943,0.135,-0.226,2.747,10.071,-2.319
-0.949,0.141,-0.210,1.587,7.935,-2.625
-0.962,0.151,-0.191,-0.122,5.188,-2.197
-0.980,0.158,-0.166,-0.854,2.808,-1.465
-0.993,0.169,-0.149,-1.038,0.977,-0.122
-1.001,0.176,-0.134,-0.793,-0.427,0.549
-1.004,0.178,-0.134,-1.587,-1.343,0.488
-1.002,0.176,-0.141,-3.113,-2.136,-0.183
-0.995,0.174,-0.154,-3.906,-2.625,-0.427
-0.989,0.170,-0.175,-3.540,-3.296,-0.427
-0.978,0.162,-0.196,-2.502,-3.723,-0.244
-0.964,0.149,-0.214,-1.038,-3.784,0.427
-0.957,0.139,-0.236,-0.183,-3.662,1.099
-0.951,0.138,-0.247,-0.122,-2.869,0.916
-0.949,0.137,-0.249,-0.732,-1.221,0.916
-0.947,0.133,-0.243,-2.075,1.160,0.854
-0.945,0.131,-0.231,-3.174,3.296,1.221
-0.944,0.127,-0.219,-2.686,4.639,2.075
-0.947,0.127,-0.209,-0.854,4.883,3.174
-0.955,0.126,-0.200,1.343,4.761,4.639
-0.970,0.128,-0.185,3.113,6.287,4.700
-0.969,0.128,-0.186,4.028,6.531,4.150
-0.967,0.135,-0.187,4.517,6.287,3.479
-0.965,0.134,-0.193,3.967,6.531,2.869
-0.960,0.135,-0.199,2.686,6.592,2.014
-0.958,0.136,-0.209,2.014,6.714,1.709
-0.955,0.140,-0.207,2.075,7.019,1.587
-0.952,0.141,-0.205,2.380,7.996,1.770
-0.945,0.142,-0.198,1.587,8.667,2.075
-0.939,0.137,-0.194,0.061,7.874,2.075
-0.941,0.135,-0.204,-1.099,6.409,1.892
-0.943,0.139,-0.210,-1.404,4.395,2.136
-0.952,0.142,-0.216,-0.366,2.991,2.380
-0.959,0.144,-0.198,0.122,2.380,2.563
-0.968,0.144,-0.183,0.000,3.235,2.258
-0.969,0.145,-0.169,0.366,3.662,1.831
-0.969,0.149,-0.169,0.488,3.052,1.160

0.110,-0.152,2.344,-38.147,-113.953,-4.395
0.115,-0.161,2.337,-47.180,-137.451,-10.376
0.165,-0.149,2.347,-57.556,-160.095,-16.846
0.255,-0.132,2.435,-67.261,-180.664,-21.729
0.272,-0.140,2.467,-75.073,-198.486,-23.804
0.299,-0.118,2.475,-82.031,-216.309,-25.513
0.364,-0.057,2.561,-85.815,-239.441,-27.649
0.357,-0.047,2.572,-86.060,-270.874,-27.832
0.390,-0.044,2.468,-82.947,-307.495,-27.405
0.407,0.030,2.321,-75.439,-343.140,-27.527
0.401,0.055,2.084,-65.125,-372.864,-27.771
0.388,0.085,1.818,-61.951,-396.362,-27.222
0.405,0.164,1.674,-65.186,-414.673,-25.391
0.379,0.102,1.463,-67.383,-430.908,-22.400
0.369,0.068,1.176,-70.557,-448.364,-21.851
0.380,0.094,0.892,-67.993,-462.708,-25.879
0.397,0.158,0.646,-57.129,-467.651,-31.860
0.439,0.301,0.553,-44.739,-463.867,-33.997
0.441,0.288,0.387,-35.828,-455.688,-31.250
0.490,0.270,0.178,-36.987,-452.271,-24.597
0.562,0.365,0.052,-38.696,-452.637,-17.029
0.598,0.372,-0.082,-33.325,-445.496,-8.667
0.568,0.331,-0.346,-31.738,-433.655,0.671
0.598,0.329,-0.584,-39.612,-423.462,9.949
0.630,0.283,-0.849,-46.997,-407.654,14.587
0.606,0.192,-1.142,-54.138,-381.470,17.151
0.592,0.132,-1.404,-62.012,-346.802,22.217
0.562,0.001,-1.635,-64.758,-306.885,26.855
0.505,-0.191,-1.879,-63.049,-267.517,31.372
0.492,-0.300,-2.108,-61.707,-228.210,38.086
0.508,-0.461,-2.380,-56.274,-179.993,44.739
0.534,-0.578,-2.762,-56.274,-114.929,50.659
0.365,-0.600,-2.898,-78.064,-28.198,56.763
-0.114,-0.394,-2.239,-99.426,45.776,62.866
-0.451,-0.358,-1.284,-59.265,59.448,57.983
-0.706,-0.307,-0.462,18.066,53.467,43.152
-1.058,-0.153,0.077,86.487,54.382,34.424
-1.262,-0.112,0.396,126.526,48.706,22.766
-1.333,-0.081,0.497,114.685,25.269,4.028
-1.265,-0.003,0.410,66.895,-7.202,-15.930
-1.132,0.086,0.099,20.142,-35.095,-30.762
-1.000,0.182,-0.334,-5.676,-54.688,-38.818
-0.867,0.222,-0.754,-12.024,-57.861,-39.856
-0.800,0.253,-0.982,-13.184,-42.358,-35.278
-0.809,0.341,-0.956,-18.555,-18.677,-28.137
-0.815,0.356,-0.738,-14.038,3.662,-19.836
-0.832,0.356,-0.466,-2.502,21.423,-10.315
-0.847,0.331,-0.247,5.981,33.936,0.244
-0.915,0.305,-0.126,8.240,39.307,10.376
-0.996,0.251,-0.032,7.446,34.973,17.761
-1.047,0.169,0.010,7.996,22.461,20.020
-1.091,0.128,-0.010,9.277,10.193,19.409
-1.118,0.111,-0.054,8.667,2.930,17.395
-1.117,0.089,-0.092,5.249,0.732,14.282
-1.086,0.066,-0.120,0.793,2.319,10.437
-1.040,0.050,-0.157,-2.197,4.028,6.165
-0.996,0.059,-0.173,-3.845,4.028,1.709
-0.968,0.089,-0.187,-5.737,3.479,-1.404
-0.941,0.103,-0.198,-6.287,2.991,-2.869
-0.914,0.123,-0.215,-5.859,1.648,-3.540
-0.894,0.146,-0.239,-4.272,-0.732,-3.235
-0.883,0.163,-0.275,-1.770,-2.136,-2.502
-0.871,0.176,-0.312,0.671,-1.648,-1.892
-0.869,0.188,-0.340,1.709,1.038,-0.854
-0.867,0.190,-0.351,3.296,5.615,0.061
-0.866,0.178,-0.354,5.005,10.864,0.793
-0.872,0.169,-0.343,6.470,15.808,1.343
-0.884,0.166,-0.325,7.141,19.836,1.892
-0.893,0.155,-0.296,8.179,23.193,1.831
-0.908,0.152,-0.269,7.751,24.597,1.526
-0.924,0.155,-0.250,5.310,23.987,0.732
-0.936,0.155,-0.238,2.686,22.278,-0.488
-0.953,0.162,-0.238,0.305,20.142,-1.587
-0.971,0.173,-0.233,-1.038,18.127,-2.075
-0.987,0.182,-0.226,-1.221,16.907,-2.075
-0.993,0.188,-0.216,-1.587,16.235,-2.197
-0.995,0.186,-0.201,-2.014,14.832,-2.197
-0.993,0.192,-0.181,-2.075,12.512,-1.770
-1.000,0.188,-0.170,-0.977,8.911,-0.732
-1.005,0.177,-0.164,1.099,5.615,0.366
-1.002,0.176,-0.163,1.526,3.906,1.526
-0.999,0.170,-0.167,0.061,2.869,2.441
-0.988,0.161,-0.172,-2.502,1.587,2.563
-0.978,0.149,-0.186,-3.723,0.061,2.441
-0.969,0.150,-0.200,-3.784,-1.709,1.831
-0.968,0.155,-0.214,-3.540,-1.953,1.099
-0.963,0.158,-0.221,-3.357,-1.221,0.916
-0.952,0.162,-0.223,-2.441,-0.244,0.549
-0.940,0.163,-0.227,-0.610,0.122,0.183
-0.933,0.170,-0.230,0.977,0.305,0.183
-0.933,0.178,-0.226,2.502,0.671,0.488
-0.935,0.180,-0.220,4.150,1.587,1.160
-0.936,0.185,-0.211,4.761,2.380,2.136
-0.939,0.179,-0.204,4.944,3.052,2.808
-0.943,0.173,-0.207,4.639,3.784,2.869
-0.943,0.170,-0.215,3.418,4.211,2.563
-0.945,0.160,-0.225,2.441,4.761,2.197
-0.946,0.151,-0.235,1.648,5.554,1.648
-0.948,0.146,-0.235,0.977,7.141,1.282
-0.950,0.143,-0.223,1.221,8.423,1.099
-0.951,0.142,-0.211,1.770,8.606,0.977
-0.951,0.144,-0.210,2.319,7.324,1.038
-0.954,0.155,-0.210,2.502,5.432,1.221
-0.961,0.168,-0.212,2.258,4.150,1.160
-0.964,0.173,-0.209,1.892,3.601,1.465
-0.963,0.180,-0.206,0.671,3.418,1.343
-0.959,0.186,-0.202,-0.427,3.601,1.587
-0.951,0.182,-0.203,-1.343,3.540,1.831
-0.946,0.177,-0.205,-2.197,2.380,2.197
-0.946,0.166,-0.214,-2.625,1.099,2.563
-0.951,0.164,-0.225,-2.258,-0.183,2.930
-0.956,0.162,-0.231,-1.526,-1.038,2.625
-0.957,0.159,-0.232,-0.977,-0.610,2.075
-0.957,0.162,-0.225,-1.648,0.244,1.770
-0.956,0.165,-0.221,-1.526,1.099,1.221
-0.951,0.174,-0.214,-0.183,1.343,0.671
-0.945,0.180,-0.213,1.709,1.770,1.221
-0.941,0.180,-0.217,3.113,1.953,1.831
-0.938,0.177,-0.224,4.211,2.075,2.502

-0.022,-0.265,2.467,-35.339,-113.525,-2.808
-0.025,-0.335,2.453,-46.692,-141.907,-8.667
-0.036,-0.375,2.403,-58.777,-161.194,-19.104
-0.026,-0.349,2.387,-71.472,-171.692,-31.250
0.000,-0.304,2.433,-80.994,-178.528,-41.321
0.029,-0.258,2.490,-84.045,-187.134,-46.570
0.093,-0.201,2.562,-80.627,-202.026,-48.523
0.134,-0.170,2.573,-75.378,-223.755,-46.631
0.172,-0.180,2.470,-72.388,-249.390,-45.532
0.217,-0.139,2.301,-75.378,-275.574,-46.936
0.269,-0.089,2.146,-81.848,-300.659,-49.255
0.344,-0.056,2.037,-87.280,-322.571,-48.584
0.359,-0.039,1.929,-89.905,-340.759,-43.396
0.347,-0.030,1.739,-87.769,-359.924,-36.621
0.351,-0.005,1.473,-79.041,-379.517,-33.813
0.352,0.030,1.183,-65.491,-396.973,-33.875
0.356,0.080,0.891,-50.110,-408.813,-35.583
0.386,0.187,0.742,-36.072,-408.630,-36.743
0.370,0.156,0.550,-23.865,-395.691,-34.668
0.353,0.177,0.389,-22.766,-383.911,-31.067
0.372,0.208,0.335,-26.184,-381.958,-24.109
0.441,0.242,0.132,-27.649,-391.418,-21.667
0.471,0.242,-0.068,-28.809,-399.109,-20.630
0.529,0.283,-0.328,-34.668,-408.081,-22.705
0.567,0.296,-0.663,-44.922,-411.926,-27.039
0.587,0.287,-0.980,-60.303,-400.269,-29.419
0.555,0.253,-1.254,-73.364,-372.375,-24.414
0.460,0.224,-1.479,-77.454,-328.613,-12.634
0.377,0.155,-1.651,-68.909,-276.611,2.930
0.290,0.042,-1.743,-50.537,-229.370,17.883
0.212,-0.054,-1.701,-32.898,-190.308,28.198
0.075,-0.195,-1.661,-20.386,-158.691,34.058
-0.045,-0.242,-1.596,-17.456,-135.315,35.522
-0.160,-0.243,-1.486,-18.005,-112.915,34.119
-0.320,-0.256,-1.388,-17.761,-85.876,32.471
-0.482,-0.212,-1.224,-23.132,-54.871,31.311
-0.657,-0.151,-1.051,-29.175,-23.682,29.175
-0.850,-0.029,-0.794,-28.137,-4.700,24.536
-0.973,0.062,-0.510,-11.292,-2.991,14.832
-1.059,0.109,-0.237,13.794,-7.385,1.892
-1.135,0.191,0.030,32.288,-12.939,-6.104
-1.157,0.241,0.184,42.542,-24.597,-10.803
-1.097,0.281,0.132,47.485,-42.297,-13.489
-1.023,0.350,-0.066,42.664,-58.533,-12.085
-0.914,0.361,-0.334,33.630,-68.115,-8.728
-0.838,0.309,-0.588,23.743,-66.650,-5.493
-0.766,0.267,-0.784,13.062,-54.382,-1.343
-0.725,0.209,-0.909,5.493,-31.433,2.869
-0.730,0.138,-0.981,2.991,-3.784,6.348
-0.757,0.115,-0.925,-3.723,21.729,7.202
-0.807,0.132,-0.699,-10.681,42.725,7.019
-0.898,0.167,-0.370,-13.000,52.246,7.690
-0.961,0.183,-0.094,-10.254,49.744,9.583
-1.022,0.209,0.051,-4.333,39.307,11.047
-1.093,0.221,0.107,1.709,25.574,11.353
-1.128,0.235,0.119,3.357,12.878,9.277
-1.117,0.229,0.092,0.488,3.723,5.493
-1.085,0.226,0.028,-4.395,-2.625,1.343
-1.035,0.213,-0.058,-8.850,-7.324,-1.587
-0.978,0.200,-0.151,-11.536,-11.047,-2.991
-0.921,0.190,-0.235,-11.658,-12.939,-3.662
-0.884,0.179,-0.294,-10.559,-13.245,-3.113
-0.856,0.161,-0.336,-9.888,-11.658,-2.197
-0.847,0.148,-0.376,-10.803,-8.545,-0.549
-0.845,0.144,-0.408,-10.437,-5.310,0.610
-0.859,0.143,-0.424,-8.667,-2.197,1.648
-0.897,0.155,-0.407,-3.174,6.531,2.197
-0.911,0.167,-0.379,-0.244,11.475,2.075
-0.935,0.180,-0.341,2.258,15.442,1.404
-0.949,0.199,-0.281,4.150,18.616,-0.122
-0.960,0.209,-0.234,4.333,19.897,-1.892
-0.968,0.227,-0.214,3.845,19.592,-3.235
-0.964,0.244,-0.206,3.784,16.968,-4.333
-0.955,0.258,-0.209,4.822,13.062,-3.662
-0.948,0.261,-0.220,6.592,8.728,-1.709
-0.941,0.252,-0.240,7.568,4.944,1.282
-0.935,0.239,-0.267,7.568,2.991,3.723
-0.928,0.214,-0.297,6.287,2.930,4.944
-0.923,0.193,-0.323,3.296,4.395,4.639
-0.923,0.181,-0.328,-0.305,6.165,3.540
-0.927,0.177,-0.329,-3.479,7.812,2.441
-0.931,0.166,-0.322,-5.005,9.216,1.831
-0.939,0.169,-0.294,-5.676,9.094,1.587
-0.949,0.173,-0.257,-4.822,7.568,1.404
-0.959,0.181,-0.227,-4.517,6.165,1.404
-0.961,0.195,-0.199,-5.432,4.272,1.709
-0.961,0.201,-0.184,-5.432,1.831,1.831
-0.962,0.212,-0.184,-4.883,-0.854,2.197
-0.959,0.217,-0.200,-4.211,-2.502,2.197
-0.953,0.214,-0.216,-4.028,-2.869,2.380
-0.948,0.204,-0.236,-4.089,-2.380,2.747
-0.940,0.195,-0.259,-4.211,-1.648,2.686
-0.933,0.182,-0.281,-4.028,-0.854,2.380
-0.922,0.175,-0.301,-3.540,0.305,2.014
-0.913,0.175,-0.318,-2.319,1.038,1.892
-0.908,0.182,-0.320,-0.366,1.953,1.892
-0.909,0.187,-0.310,2.197,3.418,2.502
-0.916,0.194,-0.294,3.540,4.639,2.869
-0.930,0.202,-0.278,3.845,6.042,2.991
-0.941,0.200,-0.261,3.906,7.690,3.052
-0.946,0.200,-0.246,3.296,8.972,2.747
-0.945,0.195,-0.239,2.563,9.460,2.197
-0.940,0.187,-0.242,2.197,9.705,2.136
-0.935,0.182,-0.248,2.258,8.911,2.197
-0.931,0.177,-0.254,2.808,7.874,2.502
-0.929,0.174,-0.260,3.723,7.019,3.052
-0.929,0.171,-0.266,4.456,6.287,3.479
-0.929,0.174,-0.275,4.395,5.615,2.869
-0.931,0.173,-0.279,3.906,5.676,2.625
-0.936,0.173,-0.282,3.174,5.615,2.502
-0.943,0.178,-0.279,2.563,5.737,2.075
-0.947,0.186,-0.270,2.197,6.226,1.770
-0.948,0.198,-0.250,0.732,6.714,1.465
-0.951,0.201,-0.239,-0.366,7.324,1.221
-0.951,0.215,-0.221,-1.831,7.263,1.343
-0.951,0.216,-0.215,-2.686,6.714,1.221
-0.946,0.218,-0.214,-3.479,5.310,1.587
-0.944,0.219,-0.224,-3.723,2.991,1.953
-0.945,0.214,-0.233,-3.052,1.099,2.258

0.130,-0.220,2.411,-20.081,-83.679,-1.709
0.116,-0.238,2.549,-29.114,-111.816,-6.104
0.113,-0.250,2.688,-39.734,-139.038,-11.963
0.091,-0.291,2.882,-54.626,-168.274,-20.508
0.074,-0.353,3.003,-68.481,-202.087,-31.982
0.154,-0.269,3.174,-79.346,-239.563,-46.143
0.206,-0.175,3.375,-86.182,-280.884,-59.753
0.240,-0.186,3.380,-95.154,-327.454,-71.960
0.269,-0.134,3.242,-109.253,-371.582,-81.055
0.307,-0.083,2.984,-122.253,-409.363,-86.121
0.332,-0.011,2.565,-130.798,-435.730,-86.182
0.358,0.058,2.103,-131.287,-444.214,-78.613
0.367,0.120,1.733,-123.352,-438.721,-64.209
0.384,0.125,1.438,-108.521,-431.824,-46.814
0.437,0.151,1.277,-91.370,-428.833,-32.288
0.531,0.230,1.304,-71.594,-429.199,-20.142
0.569,0.146,1.157,-55.786,-439.819,-10.010
0.647,0.144,0.891,-48.767,-459.656,-3.540
0.707,0.165,0.564,-29.663,-478.088,-7.080
0.803,0.207,-0.163,-32.837,-467.407,-10.681
0.830,0.254,-0.464,-46.692,-443.542,-9.949
0.870,0.285,-0.671,-56.946,-408.142,-3.296
0.879,0.268,-0.821,-55.481,-369.507,5.676
0.902,0.273,-0.881,-47.363,-330.383,16.541
0.873,0.173,-0.963,-40.283,-300.659,27.161
0.826,0.127,-1.044,-40.405,-284.302,33.752
0.707,0.102,-1.173,-39.795,-271.240,37.170
0.577,0.061,-1.337,-35.095,-258.423,38.269
0.479,0.007,-1.493,-29.297,-245.667,39.734
0.351,-0.104,-1.622,-20.935,-226.440,41.992
0.189,-0.198,-1.749,-15.381,-196.411,44.678
0.033,-0.228,-1.839,-15.991,-151.611,46.143
-0.143,-0.287,-1.947,-22.949,-84.534,46.082
-0.263,-0.267,-1.861,-36.438,-3.540,46.143
-0.446,-0.222,-1.262,-45.044,51.453,44.800
-0.713,-0.227,-0.499,-22.583,40.466,38.757
-0.844,-0.285,-0.021,24.414,-17.090,24.048
-1.010,-0.129,-0.044,61.218,-70.496,11.536
-1.126,0.042,-0.340,80.811,-96.619,5.981
-1.144,0.048,-0.710,79.590,-91.187,-0.061
-1.068,0.084,-0.925,50.476,-67.261,-5.066
-0.934,0.099,-1.057,26.428,-33.875,-9.583
-0.840,0.111,-1.154,20.020,1.770,-12.024
-0.758,0.151,-1.145,17.517,38.513,-12.329
-0.769,0.186,-0.908,9.338,70.984,-11.597
-0.853,0.266,-0.443,-11.841,81.421,-9.338
-0.945,0.271,-0.024,-28.381,69.824,-6.470
-1.025,0.318,0.168,-24.292,47.913,6.775
-1.206,0.382,0.129,4.333,4.944,12.390
-1.201,0.326,0.090,8.728,-4.761,14.282
-1.162,0.260,0.044,6.287,-7.874,13.794
-1.111,0.194,-0.027,1.465,-10.559,10.803
-1.042,0.138,-0.127,-3.357,-14.099,6.348
-0.978,0.096,-0.235,-6.104,-17.395,2.563
-0.917,0.065,-0.315,-8.301,-18.860,0.000
-0.885,0.045,-0.354,-9.583,-18.127,-1.831
-0.867,0.050,-0.371,-10.742,-14.709,-2.380
-0.864,0.071,-0.381,-10.986,-9.033,-2.319
-0.864,0.104,-0.372,-8.240,-3.906,-1.526
-0.870,0.128,-0.355,-3.357,-0.488,0.122
-0.879,0.148,-0.326,1.770,3.540,1.282
-0.889,0.170,-0.298,4.517,7.324,0.671
-0.893,0.196,-0.265,5.493,10.925,-1.099
-0.898,0.210,-0.239,6.775,13.245,-2.319
-0.901,0.213,-0.220,8.789,13.977,-3.357
-0.905,0.215,-0.204,11.169,13.123,-3.784
-0.911,0.210,-0.203,11.902,11.597,-3.357
-0.915,0.199,-0.223,11.047,8.972,-2.808
-0.916,0.195,-0.256,9.338,6.226,-2.502
-0.924,0.188,-0.287,8.362,5.066,-2.319
-0.929,0.180,-0.316,6.592,5.676,-2.197
-0.931,0.171,-0.332,3.418,7.874,-2.197
-0.932,0.160,-0.349,-0.488,10.254,-2.502
-0.939,0.160,-0.358,-3.601,11.597,-3.174
-0.955,0.169,-0.351,-5.066,12.268,-3.967
-0.971,0.177,-0.329,-5.798,12.756,-4.333
-0.978,0.192,-0.292,-6.470,12.207,-4.395
-0.978,0.204,-0.251,-6.653,9.460,-3.662
-0.976,0.209,-0.226,-6.165,5.310,-2.625
-0.978,0.216,-0.209,-5.615,0.061,-2.014
-0.976,0.221,-0.218,-5.188,-4.089,-0.549
-0.973,0.230,-0.232,-5.249,-6.226,0.732
-0.967,0.229,-0.250,-5.920,-6.104,0.916
-0.955,0.226,-0.264,-7.019,-4.456,0.732
-0.939,0.215,-0.282,-8.057,-2.197,0.488
-0.924,0.205,-0.292,-8.301,-0.427,0.000
-0.913,0.197,-0.301,-7.080,1.404,0.977
-0.899,0.185,-0.297,-2.014,4.028,2.441
-0.902,0.178,-0.286,-0.488,5.371,3.906
-0.906,0.165,-0.272,-0.244,6.104,4.700
-0.918,0.157,-0.267,0.488,6.836,4.578
-0.933,0.162,-0.265,0.977,6.836,4.028
-0.942,0.172,-0.269,1.831,7.690,3.296
-0.948,0.179,-0.271,2.258,9.705,2.319
-0.948,0.183,-0.265,2.441,12.207,1.648
-0.944,0.184,-0.253,2.808,14.038,0.793
-0.932,0.191,-0.229,4.211,14.343,0.061
-0.928,0.191,-0.221,6.226,13.000,-0.244
-0.925,0.197,-0.219,7.324,10.193,0.244
-0.929,0.198,-0.234,7.080,7.019,0.977
-0.935,0.198,-0.249,6.714,5.127,1.770
-0.936,0.195,-0.259,5.981,5.066,1.587
-0.936,0.195,-0.265,4.272,6.042,1.221
-0.938,0.193,-0.267,2.075,7.080,0.610
-0.934,0.189,-0.260,0.488,7.629,0.977
-0.938,0.187,-0.256,-0.305,7.202,1.953
-0.943,0.179,-0.245,-0.488,5.188,2.869
-0.949,0.172,-0.248,-1.343,3.418,3.418
-0.954,0.169,-0.248,-2.991,2.075,3.296
-0.958,0.173,-0.244,-4.089,1.160,2.380
-0.960,0.177,-0.237,-4.028,0.977,2.075
-0.957,0.186,-0.230,-3.723,0.671,1.953
-0.953,0.196,-0.228,-2.625,0.061,2.136
-0.951,0.204,-0.230,-1.526,-0.916,2.197
-0.945,0.206,-0.236,-1.038,-1.099,1.831
-0.938,0.202,-0.247,-1.343,-0.793,1.282
-0.935,0.207,-0.256,-1.892,-0.122,1.343
-0.927,0.201,-0.264,-1.221,0.061,1.587
-0.926,0.193,-0.270,-0.244,0.671,2.380

-0.062,-0.326,2.642,-8.362,-101.624,7.690
-0.074,-0.378,2.668,-24.780,-129.944,-3.906
-0.077,-0.314,2.627,-39.368,-157.104,-20.752
-0.040,-0.232,2.547,-48.096,-182.007,-36.499
0.007,-0.139,2.468,-50.659,-202.026,-45.288
0.088,-0.039,2.512,-46.509,-214.783,-46.570
0.111,-0.014,2.587,-35.522,-223.633,-43.396
0.150,-0.012,2.609,-28.870,-235.657,-39.429
0.214,0.015,2.607,-31.677,-254.089,-38.757
0.286,0.014,2.512,-39.185,-275.635,-40.405
0.344,0.011,2.288,-46.509,-296.387,-41.809
0.423,0.029,2.053,-50.964,-315.491,-42.419
0.498,0.082,1.910,-49.805,-330.505,-41.443
0.476,0.056,1.678,-43.701,-339.966,-38.879
0.473,0.046,1.392,-42.419,-350.647,-36.926
0.495,0.067,1.140,-43.274,-363.159,-38.635
0.547,0.120,0.980,-41.382,-370.422,-41.077
0.567,0.133,0.768,-37.109,-371.033,-40.344
0.613,0.184,0.550,-33.569,-372.742,-37.354
0.758,0.316,0.490,-29.846,-375.916,-33.386
0.771,0.330,0.342,-21.240,-375.671,-27.954
0.793,0.418,0.168,-18.677,-377.625,-20.386
0.880,0.511,0.069,-21.790,-384.583,-13.428
0.845,0.466,-0.212,-22.400,-392.578,-6.836
0.860,0.434,-0.631,-30.029,-406.128,1.099
0.940,0.299,-1.175,-42.664,-419.983,7.935
0.979,0.088,-1.876,-59.937,-424.744,13.550
0.940,-0.144,-2.620,-89.722,-413.513,16.296
0.805,-0.416,-3.261,-117.615,-380.554,17.944
0.639,-0.659,-3.691,-125.183,-322.693,20.142
0.359,-0.729,-3.953,-97.351,-235.107,22.583
0.249,-0.811,-3.764,-33.081,-107.117,27.100
0.016,-0.717,-3.272,-7.019,44.434,48.462
-0.303,-0.616,-2.075,-20.264,167.053,67.627
-0.745,-0.375,-0.816,-25.452,182.495,62.134
-0.888,-0.281,0.101,36.621,144.165,34.729
-1.070,-0.089,0.638,110.779,102.051,16.724
-1.351,0.182,0.842,132.324,64.148,7.263
-1.403,0.314,0.864,104.126,39.368,-4.578
-1.385,0.353,0.761,60.425,27.039,-14.160
-1.348,0.365,0.569,27.649,17.273,-23.376
-1.253,0.335,0.313,12.207,6.104,-32.715
-1.141,0.310,0.044,4.944,-3.784,-36.499
-1.055,0.289,-0.199,1.831,-7.935,-32.043
-0.987,0.254,-0.354,5.493,-3.601,-21.240
-0.929,0.193,-0.405,15.381,7.385,-8.118
-0.898,0.143,-0.369,24.902,23.132,4.333
-0.890,0.101,-0.301,29.114,36.072,15.564
-0.890,0.060,-0.213,24.048,43.884,22.339
-0.929,0.048,-0.106,10.193,47.302,24.231
-0.981,0.060,0.004,-2.869,47.058,22.888
-1.024,0.078,0.095,-9.888,44.067,18.677
-1.050,0.096,0.194,-15.259,40.466,14.099
-1.056,0.138,0.309,-16.968,35.034,10.925
-1.051,0.145,0.386,-13.367,28.442,8.179
-1.042,0.137,0.417,-9.521,19.531,5.249
-1.029,0.136,0.388,-7.874,7.874,2.380
-1.010,0.130,0.333,-7.507,-4.639,-1.099
-0.993,0.122,0.241,-7.385,-15.625,-3.113
-0.966,0.116,0.124,-7.446,-24.719,-3.967
-0.952,0.115,0.000,-7.751,-31.799,-4.700
-0.946,0.120,-0.117,-7.935,-35.767,-5.005
-0.936,0.113,-0.206,-8.179,-33.752,-5.005
-0.940,0.109,-0.265,-8.484,-26.489,-4.883
-0.941,0.115,-0.271,-8.057,-16.174,-4.211
-0.954,0.121,-0.237,-5.493,-5.615,-2.808
-0.956,0.126,-0.167,-1.770,2.441,-1.404
-0.970,0.138,-0.104,1.831,7.507,0.549
-0.988,0.147,-0.042,3.601,8.728,2.380
-1.002,0.152,-0.006,3.479,7.629,3.296
-1.020,0.154,0.012,3.601,5.615,3.479
-1.029,0.156,0.011,3.967,3.906,3.479
-1.035,0.156,0.004,3.784,2.747,3.357
-1.030,0.151,-0.008,3.723,2.686,3.296
-1.017,0.146,-0.028,4.395,2.808,3.479
-0.998,0.144,-0.049,5.676,1.770,3.052
-0.978,0.143,-0.071,6.897,0.610,2.197
-0.955,0.145,-0.080,7.629,0.488,1.343
-0.949,0.142,-0.086,6.653,1.282,0.427
-0.941,0.143,-0.089,4.333,1.526,-0.244
-0.939,0.146,-0.093,3.479,1.709,0.427
-0.947,0.142,-0.081,4.150,2.075,0.793
-0.954,0.137,-0.065,3.723,3.723,1.526
-0.956,0.126,-0.040,2.136,5.554,1.953
-0.962,0.121,-0.026,-0.183,6.714,1.892
-0.964,0.120,-0.013,-2.502,7.874,1.160
-0.969,0.117,-0.004,-3.967,8.362,1.038
-0.976,0.112,-0.007,-5.188,7.568,0.977
-0.980,0.107,-0.006,-6.226,5.493,1.221
-0.991,0.109,-0.010,-6.348,3.052,1.404
-0.999,0.111,-0.006,-5.371,0.671,1.221
-1.007,0.118,-0.005,-5.005,-0.977,1.038
-1.009,0.132,-0.000,-5.615,-1.953,1.221
-1.012,0.138,0.003,-5.554,-2.197,1.099
-1.009,0.145,0.001,-5.188,-2.258,1.038
-1.000,0.150,-0.014,-4.822,-2.258,1.221
-0.996,0.150,-0.031,-3.845,-2.441,1.831
-0.991,0.153,-0.052,-2.563,-2.441,2.014
-0.983,0.153,-0.069,-1.404,-1.648,2.625
-0.979,0.147,-0.077,-1.038,-0.183,3.662
-0.975,0.136,-0.084,-0.549,1.465,4.150
-0.974,0.131,-0.084,-0.061,2.136,4.456
-0.972,0.124,-0.084,1.282,2.441,4.761
-0.973,0.120,-0.082,2.075,3.113,4.761
-0.978,0.119,-0.074,1.038,4.761,4.395
-0.982,0.123,-0.055,-0.671,6.897,3.235
-0.986,0.127,-0.031,-2.014,8.850,2.441
-0.984,0.129,-0.015,-1.465,9.888,2.014
-0.982,0.129,-0.008,-0.366,9.766,2.075
-0.975,0.122,-0.006,0.061,8.911,2.075
-0.971,0.114,-0.006,-0.305,8.301,2.319
-0.967,0.110,-0.011,-0.122,7.507,2.319
-0.968,0.106,-0.018,0.305,6.897,2.441
-0.966,0.101,-0.022,0.793,6.165,2.502
-0.973,0.099,-0.016,0.488,5.676,2.197
-0.981,0.098,-0.007,-1.282,5.737,1.343
-0.988,0.105,-0.005,-2.747,5.737,0.610
-0.990,0.111,-0.006,-1.831,4.944,0.244
-0.989,0.120,-0.011,0.000,3.723,0.183

0.274,-0.198,2.423,-38.696,-97.961,-3.052
0.300,-0.176,2.589,-44.922,-120.667,-8.728
0.335,-0.141,2.738,-51.636,-149.658,-15.259
0.383,-0.138,2.812,-60.425,-186.890,-21.729
0.414,-0.136,2.829,-67.627,-228.333,-28.198
0.399,-0.147,2.770,-67.749,-269.348,-32.959
0.355,-0.145,2.621,-60.486,-307.922,-36.804
0.320,-0.113,2.392,-52.551,-341.797,-42.480
0.330,-0.039,2.259,-50.049,-367.249,-49.438
0.316,-0.030,2.141,-52.185,-382.324,-51.758
0.264,-0.032,1.980,-56.030,-391.602,-50.964
0.202,-0.034,1.789,-58.289,-404.297,-50.110
0.197,-0.042,1.563,-53.589,-423.889,-52.063
0.217,0.023,1.355,-45.349,-442.871,-54.504
0.212,0.075,1.125,-36.682,-468.689,-53.589
0.251,0.132,0.675,-33.142,-461.792,-50.171
0.304,0.178,0.485,-33.020,-462.585,-44.617
0.356,0.219,0.226,-31.494,-458.618,-38.391
0.399,0.288,-0.065,-31.494,-452.942,-32.471
0.466,0.402,-0.250,-34.607,-439.941,-26.672
0.499,0.395,-0.414,-40.771,-411.316,-19.104
0.484,0.372,-0.557,-50.842,-377.563,-7.935
0.507,0.343,-0.668,-58.350,-353.027,3.296
0.539,0.259,-0.764,-59.448,-334.839,12.146
0.580,0.150,-0.959,-57.800,-318.787,20.264
0.629,0.068,-1.203,-60.547,-307.983,26.917
0.680,-0.045,-1.522,-65.491,-300.049,30.823
0.682,-0.166,-1.932,-68.665,-289.246,31.738
0.635,-0.293,-2.327,-72.754,-264.221,30.945
0.514,-0.414,-2.709,-76.172,-212.219,31.067
0.374,-0.475,-2.998,-76.477,-124.084,37.170
0.165,-0.434,-2.997,-71.655,-4.700,45.898
-0.144,-0.513,-2.155,-52.063,96.680,49.194
-0.414,-0.432,-1.098,-25.574,116.943,41.138
-0.614,-0.412,-0.303,24.292,99.365,22.095
-0.896,-0.310,0.134,71.167,78.003,6.531
-1.166,-0.066,0.276,81.482,54.626,-3.540
-1.283,0.095,0.331,65.369,38.818,-14.526
-1.372,0.167,0.347,47.729,32.715,-22.888
-1.347,0.247,0.323,32.898,28.992,-28.931
-1.243,0.322,0.228,23.560,24.109,-32.593
-1.109,0.380,0.076,19.409,17.090,-32.654
-0.991,0.391,-0.093,23.376,10.620,-28.870
-0.899,0.327,-0.315,33.997,8.423,-22.461
-0.856,0.282,-0.426,25.635,10.193,-13.184
-0.870,0.265,-0.404,0.244,11.353,-3.296
-0.905,0.223,-0.306,-15.930,11.475,5.432
-0.944,0.182,-0.205,-20.874,8.545,11.963
-0.994,0.152,-0.122,-21.729,5.249,16.907
-1.034,0.125,-0.073,-22.766,2.991,19.165
-1.068,0.100,-0.061,-23.499,3.174,18.555
-1.094,0.083,-0.042,-20.569,3.418,14.526
-1.092,0.066,-0.036,-14.954,3.113,8.850
-1.062,0.064,-0.052,-10.925,3.052,3.357
-1.028,0.064,-0.081,-8.728,0.916,-0.122
-0.995,0.076,-0.113,-6.775,-2.014,-2.441
-0.959,0.091,-0.143,-4.944,-4.700,-3.296
-0.938,0.107,-0.167,-2.502,-7.812,-3.296
-0.925,0.128,-0.177,0.000,-10.071,-2.747
-0.924,0.137,-0.183,1.587,-10.681,-2.258
-0.925,0.144,-0.195,1.648,-9.521,-1.526
-0.927,0.152,-0.214,1.221,-7.690,-0.916
-0.924,0.155,-0.234,0.122,-5.127,-0.916
-0.921,0.159,-0.248,-1.099,-2.441,-1.038
-0.919,0.150,-0.257,-1.160,0.671,-1.465
-0.920,0.144,-0.242,-1.404,3.967,-1.343
-0.930,0.145,-0.216,-1.282,6.287,-0.366
-0.932,0.144,-0.196,-0.122,6.836,1.282
-0.942,0.142,-0.191,2.625,5.737,2.625
-0.958,0.141,-0.198,5.859,4.333,3.174
-0.970,0.138,-0.206,8.301,3.357,2.991
-0.978,0.141,-0.217,9.888,3.662,1.587
-0.984,0.144,-0.225,10.315,5.188,-0.671
-0.981,0.147,-0.223,9.521,7.141,-2.258
-0.982,0.153,-0.211,8.545,8.911,-3.296
-0.980,0.157,-0.191,7.874,10.254,-4.272
-0.978,0.159,-0.174,6.470,10.559,-4.578
-0.972,0.158,-0.162,4.700,9.216,-3.723
-0.967,0.162,-0.156,4.395,7.263,-2.136
-0.960,0.159,-0.149,5.737,4.700,0.427
-0.950,0.152,-0.142,6.165,2.502,2.869
-0.953,0.144,-0.149,4.150,-0.183,4.211
-0.959,0.150,-0.156,0.854,-2.686,4.700
-0.963,0.149,-0.168,-1.892,-5.066,3.845
-0.972,0.152,-0.182,-4.028,-6.531,2.869
-0.983,0.154,-0.190,-5.493,-6.104,2.014
-0.986,0.155,-0.186,-6.958,-4.150,1.038
-0.986,0.155,-0.177,-7.935,-2.075,0.244
-0.970,0.156,-0.169,-8.728,-0.854,-0.671
-0.958,0.162,-0.174,-8.484,-1.160,-1.404
-0.944,0.172,-0.186,-6.836,-2.563,-1.282
-0.942,0.173,-0.205,-5.127,-4.150,0.244
-0.949,0.163,-0.220,-4.150,-5.371,2.197
-0.956,0.157,-0.229,-2.930,-4.944,3.906
-0.960,0.146,-0.238,-0.610,-3.479,5.066
-0.962,0.137,-0.246,1.160,-1.953,4.944
-0.961,0.131,-0.249,0.916,0.854,3.723
-0.964,0.136,-0.243,0.244,4.089,2.014
-0.961,0.141,-0.230,0.000,7.080,0.305
-0.957,0.150,-0.211,0.183,9.338,-0.427
-0.958,0.155,-0.190,0.916,10.437,-0.549
-0.951,0.158,-0.167,2.258,9.888,0.061
-0.947,0.159,-0.156,4.272,8.118,1.221
-0.940,0.161,-0.155,5.676,5.249,2.808
-0.942,0.157,-0.172,6.897,2.930,3.601
-0.940,0.153,-0.190,7.202,1.587,4.028
-0.945,0.150,-0.202,6.836,1.343,4.028
-0.952,0.140,-0.211,6.287,2.441,3.357
-0.965,0.138,-0.208,5.249,4.150,2.747
-0.974,0.134,-0.207,4.395,6.042,1.953
-0.981,0.133,-0.198,2.747,7.446,1.160
-0.990,0.134,-0.188,1.343,8.362,0.793
-0.989,0.140,-0.173,0.183,8.728,0.305
-0.983,0.152,-0.152,-0.977,8.362,-0.488
-0.975,0.163,-0.135,-1.892,6.958,-0.916
-0.965,0.173,-0.129,-2.747,4.639,-0.793
-0.956,0.178,-0.137,-3.052,1.465,-0.610
-0.953,0.185,-0.152,-2.441,-1.404,-0.183
-0.951,0.182,-0.171,-1.770,-2.747,0.366

0.185,-0.225,2.262,-60.242,-172.363,-13.611
0.215,-0.232,2.367,-56.580,-192.383,-16.296
0.280,-0.216,2.450,-47.607,-222.351,-19.470
0.308,-0.151,2.546,-37.659,-256.165,-21.057
0.279,-0.166,2.491,-31.555,-297.974,-21.423
0.299,-0.159,2.302,-31.372,-342.102,-22.095
0.274,-0.103,2.094,-29.541,-372.498,-24.414
0.185,-0.082,1.856,-24.841,-384.949,-25.879
0.141,-0.039,1.753,-27.039,-386.292,-26.855
0.070,-0.105,1.624,-34.973,-386.536,-28.198
0.057,-0.139,1.460,-47.791,-392.700,-33.875
0.079,-0.057,1.387,-56.030,-400.635,-41.565
0.112,-0.053,1.160,-48.828,-410.339,-50.415
0.212,0.070,0.993,-39.673,-423.889,-56.580
0.272,0.164,0.830,-27.954,-433.533,-57.251
0.369,0.178,0.589,-17.151,-439.331,-52.917
0.447,0.216,0.313,-13.184,-444.092,-47.058
0.507,0.247,0.024,-14.709,-441.589,-41.992
0.545,0.278,-0.299,-23.254,-428.284,-37.537
0.560,0.288,-0.601,-38.086,-405.029,-34.790
0.607,0.284,-0.782,-55.969,-372.314,-31.860
0.527,0.253,-0.953,-68.665,-335.754,-26.367
0.532,0.227,-1.079,-72.876,-300.476,-17.578
0.544,0.161,-1.257,-72.815,-274.902,-7.751
0.562,0.052,-1.522,-71.716,-260.742,2.686
0.576,-0.055,-1.809,-67.749,-253.601,13.367
0.540,-0.168,-2.090,-57.312,-244.019,21.545
0.433,-0.267,-2.318,-44.922,-220.947,26.855
0.283,-0.322,-2.475,-36.072,-173.950,31.372
0.095,-0.343,-2.585,-32.776,-98.267,37.720
-0.134,-0.285,-2.456,-36.194,-0.488,43.823
-0.408,-0.245,-1.687,-33.630,80.139,44.495
-0.700,-0.182,-0.735,-12.756,97.778,33.752
-0.838,-0.186,0.056,31.006,82.886,18.921
-1.061,-0.151,0.500,73.608,22.156,2.502
-1.334,0.137,0.471,73.547,-14.709,-3.906
-1.351,0.165,0.271,56.213,-30.334,-11.536
-1.303,0.225,0.071,34.912,-31.616,-18.433
-1.195,0.270,-0.107,19.531,-25.635,-23.743
-1.058,0.271,-0.308,13.550,-17.944,-25.452
-0.921,0.261,-0.479,13.916,-9.460,-22.217
-0.822,0.229,-0.604,18.372,2.747,-15.259
-0.777,0.188,-0.606,12.146,14.648,-7.385
-0.800,0.198,-0.480,-6.836,18.433,-1.282
-0.875,0.212,-0.300,-20.386,15.442,3.418
-0.960,0.227,-0.142,-23.560,10.986,7.385
-1.025,0.234,-0.054,-17.944,8.423,11.902
-1.070,0.232,-0.025,-12.207,8.423,15.259
-1.090,0.207,-0.009,-7.507,7.568,16.724
-1.098,0.171,-0.008,-4.700,6.104,15.259
-1.087,0.140,-0.025,-3.967,5.310,11.475
-1.059,0.118,-0.036,-4.272,4.211,6.470
-1.022,0.094,-0.051,-5.676,1.648,1.648
-0.988,0.085,-0.090,-7.629,-2.625,-1.587
-0.955,0.100,-0.137,-6.470,-8.606,-2.380
-0.932,0.115,-0.192,-1.709,-13.916,-2.258
-0.912,0.127,-0.241,2.869,-15.747,-1.404
-0.890,0.137,-0.288,2.930,-13.977,-0.366
-0.881,0.151,-0.327,1.648,-9.888,0.549
-0.887,0.154,-0.348,1.465,-5.005,0.610
-0.900,0.157,-0.349,0.793,-0.488,0.549
-0.921,0.158,-0.317,0.366,5.066,0.488
-0.937,0.156,-0.259,0.427,10.925,0.000
-0.949,0.156,-0.193,0.610,14.465,-0.916
-0.960,0.159,-0.142,1.038,14.893,-1.648
-0.971,0.159,-0.124,2.380,13.062,-2.197
-0.971,0.165,-0.128,5.066,9.888,-2.747
-0.970,0.178,-0.146,8.423,6.714,-3.540
-0.967,0.192,-0.173,10.559,5.188,-3.845
-0.960,0.205,-0.194,12.024,5.127,-3.174
-0.959,0.211,-0.207,13.000,6.470,-2.441
-0.957,0.207,-0.206,12.268,8.667,-2.197
-0.958,0.197,-0.202,9.766,11.292,-2.014
-0.966,0.190,-0.193,6.226,13.000,-1.831
-0.970,0.179,-0.181,1.953,13.611,-1.160
-0.987,0.160,-0.155,-5.554,10.254,-0.793
-0.998,0.159,-0.148,-9.155,6.897,-0.549
-1.001,0.168,-0.129,-12.268,3.235,-0.488
-1.004,0.156,-0.117,-12.085,-0.183,-0.427
-1.002,0.156,-0.117,-11.047,-2.380,-0.610
-0.988,0.160,-0.135,-10.620,-4.028,-0.610
-0.979,0.166,-0.155,-10.193,-4.822,-0.549
-0.969,0.167,-0.175,-10.071,-4.944,-0.244
-0.959,0.175,-0.189,-9.766,-4.028,0.061
-0.956,0.178,-0.201,-9.155,-2.686,0.244
-0.957,0.178,-0.211,-8.972,-1.404,0.488
-0.948,0.167,-0.211,-7.935,-0.305,1.404
-0.947,0.159,-0.215,-5.493,0.793,2.930
-0.948,0.149,-0.207,-2.747,1.221,4.822
-0.954,0.140,-0.202,-0.427,1.038,5.859
-0.958,0.138,-0.196,0.916,0.793,5.676
-0.963,0.142,-0.190,1.282,1.038,4.456
-0.968,0.151,-0.182,1.099,1.770,2.808
-0.970,0.156,-0.181,1.099,2.808,1.709
-0.966,0.161,-0.179,1.587,4.028,1.648
-0.956,0.165,-0.182,2.747,5.066,1.709
-0.946,0.168,-0.186,4.028,5.981,1.709
-0.935,0.165,-0.193,4.150,6.653,1.587
-0.932,0.162,-0.199,3.601,6.897,1.404
-0.928,0.156,-0.203,4.333,6.226,1.648
-0.937,0.159,-0.208,5.859,5.981,2.808
-0.940,0.153,-0.203,7.263,5.798,3.418
-0.955,0.137,-0.211,7.141,6.348,3.967
-0.967,0.150,-0.179,5.554,6.592,3.662
-0.974,0.141,-0.176,5.066,6.836,2.441
-0.983,0.153,-0.156,3.357,8.606,1.221
-0.981,0.161,-0.141,0.549,8.850,-0.061
-0.982,0.163,-0.129,-1.099,8.911,-1.099
-0.980,0.175,-0.119,-3.113,7.446,-1.770
-0.977,0.185,-0.123,-4.028,4.639,-1.526
-0.974,0.186,-0.133,-3.784,1.343,-0.427
-0.976,0.185,-0.135,-3.174,-0.977,0.793
-0.975,0.175,-0.138,-2.380,-1.892,2.197
-0.973,0.169,-0.148,-2.258,-2.380,2.441
-0.965,0.164,-0.169,-2.869,-2.747,1.892
-0.960,0.161,-0.194,-3.662,-2.808,1.038
-0.952,0.159,-0.218,-4.028,-2.319,0.671
-0.950,0.162,-0.229,-3.662,-1.038,0.854
-0.948,0.162,-0.228,-2.808,1.282,1.587

0.293,-0.150,2.209,-33.813,-117.432,-6.836
0.346,-0.175,2.316,-43.030,-133.667,-9.949
0.396,-0.193,2.424,-51.086,-150.574,-13.550
0.430,-0.189,2.559,-56.091,-170.776,-17.029
0.462,-0.193,2.613,-55.786,-199.280,-19.958
0.530,-0.173,2.633,-52.063,-236.511,-23.743
0.649,-0.094,2.726,-46.021,-275.146,-27.466
0.680,-0.067,2.737,-37.292,-310.730,-27.161
0.637,-0.102,2.582,-36.743,-346.619,-24.841
0.663,-0.070,2.475,-44.678,-376.770,-24.536
0.637,-0.065,2.319,-48.035,-393.127,-27.771
0.532,-0.080,2.074,-47.485,-400.452,-30.823
0.461,-0.075,1.802,-49.011,-407.837,-32.776
0.429,-0.089,1.503,-49.316,-418.152,-36.072
0.463,-0.062,1.295,-48.523,-431.396,-40.588
0.535,-0.032,1.149,-44.739,-446.655,-42.053
0.583,-0.060,0.868,-38.086,-465.149,-42.175
0.671,0.031,0.562,-32.959,-485.962,-43.823
0.792,0.165,0.294,-24.780,-498.779,-48.645
0.854,0.252,-0.019,-19.043,-495.300,-53.406
0.890,0.346,-0.372,-25.391,-480.103,-50.903
0.883,0.429,-0.705,-42.908,-461.731,-42.419
0.893,0.410,-0.976,-66.040,-438.232,-31.677
0.909,0.321,-1.299,-89.600,-409.241,-17.517
0.893,0.176,-1.656,-107.361,-379.700,-2.319
0.924,-0.042,-2.047,-116.882,-355.164,13.000
0.924,-0.261,-2.430,-113.892,-340.515,29.297
0.833,-0.469,-2.753,-98.694,-325.806,41.992
0.629,-0.585,-2.989,-74.524,-295.044,47.791
0.416,-0.613,-3.231,-44.739,-232.117,47.791
0.246,-0.601,-3.515,-16.357,-119.202,46.509
-0.007,-0.498,-3.165,-15.198,43.945,58.594
-0.565,-0.496,-1.718,-21.729,152.832,68.054
-0.709,-0.395,-0.619,-11.230,152.588,43.335
-0.777,-0.346,0.127,48.279,134.644,7.263
-1.082,-0.107,0.491,118.042,103.577,-8.911
-1.294,0.159,0.628,139.099,67.139,-20.142
-1.293,0.283,0.625,116.089,39.307,-25.452
-1.322,0.307,0.597,78.552,28.015,-25.513
-1.326,0.347,0.466,38.025,24.536,-26.794
-1.235,0.382,0.306,13.733,17.700,-30.701
-1.115,0.398,0.108,7.874,7.996,-30.640
-1.020,0.381,-0.060,12.329,0.122,-24.109
-0.953,0.286,-0.284,29.236,-1.465,-12.939
-0.906,0.175,-0.450,43.396,2.197,-1.282
-0.891,0.132,-0.478,29.297,7.629,9.216
-0.906,0.122,-0.386,5.554,12.268,15.015
-0.937,0.120,-0.245,-9.155,16.296,16.113
-0.993,0.127,-0.086,-19.592,20.813,15.198
-1.034,0.146,0.052,-25.085,24.170,13.794
-1.054,0.165,0.135,-23.987,26.245,12.329
-1.057,0.184,0.187,-20.874,24.780,10.437
-1.046,0.182,0.218,-19.226,19.958,7.996
-1.021,0.175,0.222,-17.639,13.184,5.737
-1.000,0.162,0.203,-15.015,5.005,3.845
-0.982,0.142,0.154,-13.000,-4.150,2.258
-0.960,0.130,0.080,-10.620,-12.817,0.366
-0.947,0.125,0.007,-7.019,-19.165,-1.526
-0.949,0.132,-0.058,-4.700,-22.766,-2.930
-0.932,0.134,-0.118,-4.333,-22.278,-4.517
-0.941,0.131,-0.170,-4.272,-20.142,-5.920
-0.935,0.136,-0.209,-4.700,-16.418,-6.531
-0.943,0.145,-0.227,-4.761,-11.230,-5.737
-0.946,0.144,-0.232,-4.822,-4.822,-4.395
-0.956,0.143,-0.208,-4.517,-0.549,-2.808
-0.970,0.145,-0.174,-4.089,1.343,-1.953
-0.983,0.150,-0.142,-2.319,1.282,-0.244
-0.993,0.148,-0.130,0.122,-0.061,1.648
-1.000,0.156,-0.129,2.380,-1.465,3.113
-1.003,0.164,-0.118,4.822,-1.526,3.845
-1.005,0.162,-0.101,6.042,-0.305,3.418
-0.999,0.171,-0.094,5.859,0.549,2.014
-0.992,0.181,-0.107,7.080,0.122,-0.183
-0.985,0.187,-0.133,9.521,-0.183,-1.953
-0.974,0.194,-0.148,11.353,0.488,-2.197
-0.967,0.192,-0.149,12.756,2.380,-1.526
-0.963,0.185,-0.138,13.000,4.028,-0.366
-0.964,0.164,-0.121,12.085,5.371,1.038
-0.962,0.145,-0.104,10.925,5.310,2.075
-0.962,0.132,-0.084,9.338,3.967,2.075
-0.969,0.118,-0.071,6.531,2.319,1.831
-0.967,0.119,-0.068,3.357,0.366,1.648
-0.967,0.130,-0.078,1.038,-1.587,0.854
-0.971,0.143,-0.093,-1.099,-2.258,-0.183
-0.968,0.156,-0.100,-3.967,-1.465,-0.366
-0.972,0.162,-0.099,-6.104,-0.305,0.122
-0.977,0.156,-0.092,-6.897,0.610,0.793
-0.986,0.149,-0.084,-7.751,0.732,1.343
-0.992,0.141,-0.082,-8.972,-0.305,1.587
-1.000,0.132,-0.090,-8.850,-1.831,1.099
-1.000,0.136,-0.096,-7.568,-2.686,0.977
-0.997,0.139,-0.108,-5.920,-3.418,1.221
-0.989,0.148,-0.116,-4.639,-4.028,1.404
-0.980,0.156,-0.132,-3.723,-3.906,1.282
-0.971,0.163,-0.146,-2.869,-3.296,1.221
-0.967,0.165,-0.159,-2.747,-2.625,1.282
-0.964,0.167,-0.161,-2.014,-1.465,1.892
-0.964,0.170,-0.155,-1.221,0.427,1.953
-0.963,0.166,-0.152,-1.404,2.563,1.709
-0.957,0.159,-0.144,-1.831,4.517,1.221
-0.951,0.155,-0.133,-2.502,6.165,0.793
-0.953,0.147,-0.123,-2.563,7.080,0.305
-0.950,0.144,-0.113,-1.831,6.958,0.549
-0.950,0.145,-0.104,-0.183,6.042,1.038
-0.957,0.144,-0.099,1.465,5.127,1.770
-0.958,0.141,-0.100,1.892,4.333,2.136
-0.957,0.137,-0.109,1.770,3.723,1.892
-0.958,0.138,-0.116,1.465,3.540,1.282
-0.960,0.139,-0.122,1.221,4.150,0.854
-0.965,0.139,-0.128,0.793,5.371,0.000
-0.967,0.145,-0.127,0.000,6.592,-0.671
-0.972,0.147,-0.119,-0.366,7.324,-1.343
-0.979,0.154,-0.105,-1.038,7.812,-1.648
-0.983,0.160,-0.091,-1.587,7.507,-1.526
-0.984,0.166,-0.086,-1.404,6.104,-0.854
-0.985,0.169,-0.089,-0.854,4.395,-0.244
-0.987,0.169,-0.085,-0.427,3.540,0.427
-0.990,0.166,-0.076,-0.488,4.028,1.038
-0.987,0.164,-0.072,-0.732,4.272,1.160

0.230,-0.164,2.123,-27.405,-151.428,-17.029
0.262,-0.163,2.107,-32.288,-174.316,-22.400
0.290,-0.161,2.094,-37.537,-191.772,-25.696
0.276,-0.159,2.058,-42.847,-204.346,-26.733
0.253,-0.165,1.989,-47.974,-215.576,-26.672
0.241,-0.146,1.963,-50.659,-227.539,-25.574
0.240,-0.137,1.946,-48.523,-242.981,-23.804
0.256,-0.115,1.913,-46.204,-261.108,-22.705
0.289,-0.056,1.923,-46.021,-278.320,-23.132
0.275,-0.056,1.890,-47.241,-294.312,-23.865
0.219,-0.080,1.784,-51.941,-311.646,-24.841
0.180,-0.056,1.682,-57.922,-330.627,-26.978
0.150,-0.030,1.575,-59.509,-348.999,-30.884
0.123,0.011,1.470,-56.580,-365.112,-34.851
0.100,0.032,1.351,-52.185,-382.019,-36.011
0.130,0.023,1.234,-48.889,-402.222,-33.447
0.174,0.023,1.125,-44.617,-421.875,-29.663
0.199,0.023,0.912,-35.583,-436.523,-26.794
0.241,0.069,0.672,-24.170,-441.833,-25.269
0.258,0.166,0.517,-14.648,-431.458,-23.254
0.234,0.163,0.389,-10.559,-411.316,-17.761
0.220,0.167,0.230,-13.855,-393.860,-11.536
0.253,0.238,0.159,-19.836,-380.554,-10.010
0.264,0.227,0.030,-24.109,-366.821,-13.062
0.272,0.210,-0.136,-33.813,-357.239,-16.663
0.322,0.226,-0.306,-44.556,-354.065,-19.714
0.401,0.220,-0.419,-49.866,-352.905,-21.667
0.416,0.143,-0.650,-51.758,-349.243,-18.250
0.423,0.141,-0.993,-54.504,-345.703,-9.949
0.463,0.083,-1.393,-53.345,-334.412,-3.174
0.464,-0.052,-1.806,-49.622,-310.852,2.930
0.462,-0.180,-2.209,-48.096,-274.353,10.681
0.380,-0.287,-2.550,-48.096,-221.008,16.907
0.404,-0.400,-3.003,-47.119,-142.029,20.996
0.356,-0.379,-3.296,-48.401,-32.104,31.250
-0.034,-0.398,-2.642,-41.626,73.547,49.255
-0.476,-0.457,-1.457,-17.151,89.905,45.471
-0.645,-0.318,-0.760,7.751,56.458,9.460
-0.882,-0.129,-0.351,65.552,43.945,-16.357
-1.122,0.134,-0.174,121.216,45.715,-18.311
-1.163,0.225,0.022,133.423,58.777,-14.648
-1.154,0.229,0.216,100.403,67.383,-11.047
-1.130,0.226,0.261,53.162,67.871,-11.780
-1.094,0.286,0.153,20.386,61.462,-17.639
-1.047,0.362,0.020,8.850,49.866,-23.071
-1.004,0.350,-0.082,8.972,37.781,-23.499
-0.979,0.327,-0.169,5.371,29.907,-16.418
-0.986,0.338,-0.180,-0.610,23.315,-5.920
-1.010,0.311,-0.133,-0.244,15.991,2.686
-1.032,0.247,-0.087,1.404,8.850,8.301
-1.064,0.233,-0.052,-5.981,5.493,11.597
-1.088,0.225,-0.035,-15.930,4.272,12.756
-1.091,0.197,-0.056,-21.240,5.249,12.024
-1.084,0.173,-0.065,-18.372,6.348,10.681
-1.055,0.159,-0.066,-12.329,7.324,8.606
-1.025,0.147,-0.044,-7.996,9.399,7.080
-1.003,0.127,-0.026,-9.094,10.193,6.104
-0.978,0.114,-0.021,-12.512,7.446,4.883
-0.967,0.113,-0.028,-11.902,1.709,3.479
-0.954,0.118,-0.041,-7.629,-2.991,2.625
-0.953,0.129,-0.051,-3.784,-6.531,2.197
-0.945,0.134,-0.061,-1.099,-7.080,1.587
-0.932,0.141,-0.087,-0.549,-6.836,-0.061
-0.925,0.154,-0.133,-0.854,-6.348,-1.892
-0.908,0.168,-0.182,-1.404,-5.432,-2.747
-0.909,0.173,-0.228,-1.099,-3.540,-3.296
-0.910,0.177,-0.249,-0.916,-0.244,-3.174
-0.920,0.169,-0.245,-0.671,4.272,-2.991
-0.936,0.160,-0.213,-0.427,9.460,-2.319
-0.963,0.149,-0.173,0.366,13.062,-0.366
-0.979,0.150,-0.172,2.136,12.024,-0.305
-0.992,0.154,-0.176,3.723,11.353,-0.305
-0.998,0.156,-0.185,5.249,11.841,-0.977
-0.999,0.162,-0.185,6.714,12.268,-1.648
-0.999,0.175,-0.178,8.606,12.939,-2.075
-0.998,0.180,-0.163,10.254,13.428,-2.136
-0.995,0.191,-0.147,10.559,13.367,-2.197
-0.989,0.203,-0.133,10.010,12.939,-2.625
-0.981,0.211,-0.120,7.751,11.902,-3.479
-0.974,0.224,-0.105,4.089,11.108,-3.662
-0.965,0.222,-0.087,0.916,10.254,-2.625
-0.955,0.217,-0.081,-1.404,8.728,-1.587
-0.944,0.213,-0.085,-2.747,5.432,0.122
-0.940,0.205,-0.095,-2.991,1.892,1.648
-0.944,0.195,-0.098,-3.723,-0.977,2.930
-0.946,0.183,-0.106,-4.761,-2.686,3.662
-0.958,0.170,-0.119,-5.615,-3.479,3.784
-0.969,0.156,-0.134,-6.104,-3.784,3.845
-0.980,0.144,-0.145,-6.226,-3.113,3.845
-0.989,0.134,-0.139,-6.409,-1.587,4.089
-0.992,0.119,-0.133,-6.470,0.671,3.845
-0.989,0.113,-0.126,-6.226,2.258,3.113
-0.983,0.118,-0.120,-5.127,2.686,2.319
-0.980,0.124,-0.113,-3.296,2.808,1.587
-0.974,0.136,-0.104,-2.136,2.563,0.854
-0.968,0.147,-0.106,-1.648,1.709,0.122
-0.966,0.160,-0.125,-0.916,0.488,-0.549
-0.957,0.165,-0.153,0.427,-0.488,-1.099
-0.960,0.177,-0.178,1.343,-0.366,-1.160
-0.961,0.180,-0.195,2.197,1.221,-0.671
-0.962,0.173,-0.198,2.930,4.211,-0.366
-0.969,0.169,-0.191,2.869,7.874,-0.305
-0.965,0.169,-0.167,2.747,11.353,-0.977
-0.959,0.173,-0.140,2.502,14.282,-1.465
-0.955,0.185,-0.108,1.770,15.076,-1.343
-0.951,0.198,-0.087,2.319,13.428,-0.854
-0.950,0.211,-0.083,3.662,10.010,-0.610
-0.953,0.216,-0.086,4.089,6.470,-0.061
-0.960,0.214,-0.097,2.930,4.211,0.366
-0.963,0.205,-0.104,1.953,3.418,0.854
-0.970,0.195,-0.110,1.343,3.662,0.610
-0.974,0.185,-0.119,0.916,4.822,0.916
-0.972,0.172,-0.127,0.305,5.554,1.038
-0.971,0.161,-0.132,0.122,6.104,0.916
-0.967,0.156,-0.132,-0.305,6.409,0.793
-0.962,0.154,-0.124,-1.160,5.859,0.427
-0.962,0.155,-0.117,-2.441,4.883,-0.305
-0.967,0.162,-0.115,-3.296,3.540,-0.549
-0.975,0.170,-0.113,-2.747,2.136,-0.366

0.285,-0.155,2.696,-32.593,-18.127,20.020
0.245,-0.240,3.002,-44.922,-48.584,15.259
0.255,-0.222,3.024,-58.228,-97.168,-0.488
0.345,-0.092,2.918,-65.186,-158.630,-20.630
0.439,0.037,2.717,-64.087,-215.515,-36.499
0.501,0.136,2.480,-60.669,-258.240,-40.955
0.557,0.176,2.367,-60.486,-283.264,-35.828
0.604,0.198,2.346,-60.669,-293.701,-24.902
0.597,0.200,2.340,-61.279,-300.110,-15.015
0.602,0.208,2.297,-61.340,-311.340,-8.728
0.597,0.210,2.253,-61.340,-327.087,-2.625
0.601,0.181,2.133,-59.998,-349.487,3.784
0.602,0.159,1.982,-56.396,-376.526,10.498
0.565,0.113,1.772,-46.997,-405.518,15.808
0.514,0.068,1.523,-35.095,-434.570,18.188
0.497,0.077,1.312,-24.902,-457.031,17.578
0.476,0.087,1.101,-17.029,-467.163,14.587
0.428,0.110,0.919,-13.611,-467.590,10.864
0.375,0.093,0.724,-16.174,-463.135,9.338
0.348,0.079,0.549,-20.020,-458.923,8.057
0.356,0.135,0.471,-20.325,-453.308,6.409
0.344,0.134,0.350,-15.076,-444.580,5.188
0.356,0.153,0.214,-12.329,-438.965,5.493
0.413,0.180,0.093,-12.024,-434.998,7.385
0.451,0.181,-0.071,-12.146,-430.115,10.742
0.494,0.189,-0.237,-16.541,-423.584,14.648
0.514,0.198,-0.452,-23.376,-413.208,19.165
0.475,0.191,-0.700,-32.532,-400.818,23.743
0.422,0.211,-0.873,-43.335,-381.470,29.480
0.330,0.167,-1.050,-47.852,-349.731,35.217
0.231,0.139,-1.220,-46.936,-312.378,39.795
0.175,0.078,-1.312,-45.105,-276.733,41.931
0.136,0.038,-1.338,-42.114,-239.746,41.565
0.074,-0.026,-1.353,-36.438,-202.942,38.147
0.004,-0.095,-1.368,-33.813,-170.166,33.569
-0.045,-0.160,-1.372,-34.607,-145.813,30.457
-0.079,-0.211,-1.398,-32.654,-128.418,28.625
-0.130,-0.231,-1.444,-25.513,-113.953,27.283
-0.217,-0.222,-1.466,-17.090,-97.107,24.841
-0.319,-0.179,-1.424,-10.071,-74.585,20.874
-0.451,-0.152,-1.329,-5.615,-48.279,16.602
-0.581,-0.114,-1.156,-4.578,-24.780,12.634
-0.702,-0.096,-0.960,-2.014,-7.812,8.484
-0.814,-0.100,-0.768,4.944,2.258,4.639
-0.884,-0.095,-0.603,13.611,3.784,1.465
-0.937,-0.074,-0.486,18.921,0.000,-1.465
-0.970,-0.045,-0.402,19.409,-4.517,-4.395
-0.966,-0.026,-0.376,17.517,-11.536,-6.165
-0.927,0.004,-0.393,15.808,-21.362,-6.836
-0.901,0.020,-0.474,18.372,-30.884,-6.531
-0.887,0.035,-0.565,20.752,-35.400,-5.249
-0.876,0.055,-0.624,18.677,-33.997,-3.662
-0.852,0.076,-0.653,14.282,-28.076,-3.113
-0.832,0.103,-0.676,9.766,-19.409,-8.057
-0.800,0.150,-0.659,3.052,4.700,-11.597
-0.800,0.171,-0.596,1.709,18.311,-13.428
-0.806,0.198,-0.501,4.761,27.954,-12.817
-0.819,0.212,-0.426,14.221,31.860,-9.705
-0.833,0.216,-0.393,27.588,31.250,-5.066
-0.845,0.203,-0.386,38.818,27.649,-0.610
-0.862,0.178,-0.392,42.969,23.254,2.808
-0.882,0.161,-0.387,38.818,21.484,4.456
-0.914,0.143,-0.383,32.654,23.376,3.845
-0.939,0.130,-0.369,24.353,26.917,1.648
-0.952,0.112,-0.350,13.611,29.602,-0.916
-0.958,0.106,-0.321,1.282,29.846,-2.625
-0.970,0.105,-0.282,-8.362,25.879,-3.723
-0.980,0.104,-0.261,-14.771,18.433,-3.601
-0.992,0.106,-0.263,-17.944,11.169,-2.563
-0.993,0.104,-0.281,-18.616,4.456,-1.282
-0.980,0.094,-0.317,-17.334,-1.038,0.122
-0.973,0.098,-0.370,-15.869,-4.089,0.793
-0.961,0.094,-0.421,-16.113,-5.127,0.793
-0.944,0.090,-0.457,-17.944,-3.784,0.549
-0.927,0.100,-0.472,-19.714,-1.465,0.610
-0.915,0.107,-0.470,-19.653,1.465,0.244
-0.907,0.116,-0.465,-19.165,2.869,0.549
-0.899,0.127,-0.459,-17.944,2.380,1.160
-0.893,0.127,-0.456,-15.137,0.244,2.075
-0.895,0.134,-0.462,-11.292,-1.038,2.747
-0.889,0.130,-0.459,-6.897,-1.099,3.784
-0.886,0.131,-0.453,-3.235,-0.122,4.333
-0.880,0.132,-0.443,-0.732,2.380,4.028
-0.871,0.121,-0.436,0.183,5.188,2.930
-0.865,0.120,-0.427,-0.793,7.202,1.587
-0.868,0.119,-0.414,-1.404,8.484,0.427
-0.877,0.112,-0.405,-0.854,10.864,0.488
-0.888,0.106,-0.389,-0.549,12.817,1.282
-0.891,0.091,-0.376,0.427,13.611,2.991
-0.894,0.078,-0.367,1.526,13.062,4.395
-0.891,0.074,-0.364,2.563,12.146,4.639
-0.897,0.078,-0.364,2.686,11.353,3.235
-0.897,0.077,-0.374,1.282,12.085,0.793
-0.890,0.087,-0.380,-1.770,12.329,-1.404
-0.884,0.095,-0.406,-2.808,12.024,-2.563
-0.881,0.105,-0.425,-1.770,12.207,-2.686
-0.882,0.098,-0.436,1.221,13.062,-1.709
-0.889,0.094,-0.438,3.845,14.526,-0.061
-0.901,0.089,-0.426,5.371,16.479,1.892
-0.918,0.092,-0.401,6.592,18.433,2.380
-0.927,0.098,-0.368,6.836,20.386,1.587
-0.932,0.108,-0.340,6.409,20.813,-0.122
-0.937,0.123,-0.320,5.249,19.409,-1.221
-0.935,0.131,-0.315,4.333,16.418,-1.831
-0.932,0.135,-0.322,4.028,12.817,-1.465
-0.932,0.140,-0.340,3.845,9.033,-0.427
-0.929,0.140,-0.359,3.357,6.897,0.671
-0.924,0.134,-0.372,1.831,6.409,1.221
-0.917,0.132,-0.381,-0.610,6.897,1.343
-0.915,0.126,-0.386,-2.502,7.935,0.854
-0.918,0.126,-0.387,-3.967,9.399,0.854
-0.915,0.122,-0.380,-4.272,10.803,1.221
-0.916,0.121,-0.365,-4.028,11.963,1.953
-0.924,0.120,-0.347,-3.418,12.878,3.052
-0.931,0.116,-0.329,-2.930,13.428,4.211
-0.935,0.111,-0.306,-2.441,13.184,4.944
-0.944,0.100,-0.286,-1.709,12.695,5.615
-0.949,0.095,-0.269,-1.648,11.353,5.920
-0.952,0.088,-0.266,-1.892,8.972,5.432

0.072,0.133,2.536,-31.372,-128.784,-27.222
0.069,0.156,2.683,-40.100,-156.799,-27.466
0.056,0.152,2.787,-48.462,-190.552,-28.259
0.132,0.157,2.896,-52.979,-233.032,-28.442
0.197,0.122,2.917,-51.636,-280.151,-25.513
0.287,0.075,2.864,-44.678,-327.087,-20.081
0.349,0.018,2.731,-32.654,-367.798,-15.625
0.365,-0.024,2.530,-17.395,-398.376,-13.184
0.358,-0.034,2.362,-6.042,-419.312,-12.695
0.307,-0.066,2.259,-2.869,-434.875,-13.550
0.245,-0.141,2.111,-7.629,-450.928,-15.564
0.215,-0.236,1.887,-20.142,-470.337,-20.691
0.208,-0.276,1.628,-27.954,-487.183,-31.555
0.204,-0.255,1.334,-25.940,-494.019,-46.448
0.209,-0.158,1.075,-20.691,-490.906,-62.317
0.212,-0.103,0.832,-20.325,-478.271,-73.608
0.240,-0.088,0.594,-30.945,-462.891,-79.163
0.295,-0.017,0.359,-45.044,-449.890,-80.505
0.333,0.089,0.160,-50.537,-434.326,-78.064
0.343,0.192,-0.005,-47.668,-412.598,-70.374
0.375,0.302,-0.158,-43.030,-388.306,-57.373
0.397,0.360,-0.317,-41.504,-368.103,-40.161
0.417,0.400,-0.458,-44.250,-350.891,-22.522
0.429,0.414,-0.566,-49.438,-332.336,-5.066
0.416,0.388,-0.682,-51.575,-311.218,11.963
0.406,0.323,-0.822,-50.476,-293.457,26.917
0.420,0.255,-0.969,-49.255,-282.227,36.682
0.438,0.164,-1.115,-49.072,-273.010,41.626
0.438,0.054,-1.255,-51.208,-260.010,44.373
0.420,-0.075,-1.375,-54.749,-243.896,46.509
0.377,-0.184,-1.454,-58.289,-228.027,48.645
0.299,-0.300,-1.539,-56.458,-212.524,50.232
0.238,-0.360,-1.584,-52.063,-196.777,49.927
0.157,-0.395,-1.659,-45.593,-180.176,45.776
0.039,-0.359,-1.723,-39.185,-160.950,37.231
-0.094,-0.307,-1.795,-34.058,-132.874,24.902
-0.200,-0.233,-1.791,-27.954,-96.741,12.390
-0.270,-0.183,-1.697,-16.113,-54.932,1.770
-0.353,-0.126,-1.513,0.488,-15.137,-4.639
-0.448,-0.062,-1.240,18.616,15.137,-7.507
-0.538,-0.011,-0.928,32.471,36.072,-7.446
-0.657,0.058,-0.672,43.945,46.448,-4.761
-0.748,0.098,-0.521,54.443,44.678,-2.502
-0.810,0.116,-0.453,59.937,33.752,-0.488
-0.836,0.134,-0.475,59.265,19.958,2.441
-0.856,0.150,-0.532,52.551,9.949,4.150
-0.863,0.149,-0.601,41.931,7.996,4.578
-0.849,0.123,-0.667,32.043,13.794,3.845
-0.818,0.102,-0.698,22.156,23.071,2.930
-0.782,0.089,-0.673,17.700,32.288,3.418
-0.768,0.075,-0.622,18.066,38.757,5.249
-0.767,0.070,-0.565,19.226,40.466,7.141
-0.786,0.068,-0.525,23.132,39.124,8.057
-0.824,0.082,-0.487,26.611,37.842,7.996
-0.859,0.106,-0.448,27.527,37.659,7.202
-0.895,0.124,-0.410,25.146,38.757,5.371
-0.916,0.141,-0.376,17.212,40.222,2.380
-0.922,0.156,-0.363,7.019,40.833,-1.587
-0.932,0.180,-0.342,-3.784,40.466,-5.859
-0.939,0.199,-0.324,-11.719,39.185,-8.789
-0.931,0.210,-0.303,-16.968,37.170,-9.521
-0.926,0.219,-0.280,-19.104,32.654,-8.728
-0.924,0.219,-0.275,-18.188,26.733,-6.714
-0.920,0.215,-0.291,-17.090,19.775,-4.150
-0.913,0.199,-0.334,-17.456,12.695,-1.831
-0.909,0.185,-0.383,-20.264,7.202,0.854
-0.901,0.161,-0.431,-24.109,4.272,3.113
-0.899,0.134,-0.480,-28.564,3.784,4.456
-0.903,0.107,-0.506,-31.921,6.104,5.493
-0.900,0.080,-0.525,-34.424,10.071,5.615
-0.890,0.057,-0.533,-34.180,13.550,5.005
-0.882,0.053,-0.523,-31.128,15.381,4.333
-0.883,0.053,-0.508,-25.574,16.113,3.540
-0.885,0.061,-0.491,-19.531,15.442,2.747
-0.893,0.072,-0.471,-13.977,14.404,2.686
-0.906,0.089,-0.448,-9.644,13.306,2.075
-0.916,0.105,-0.432,-5.310,13.123,1.465
-0.920,0.120,-0.422,-1.892,13.489,1.038
-0.918,0.126,-0.413,0.732,14.343,0.366
-0.914,0.131,-0.405,1.831,15.625,-0.610
-0.907,0.129,-0.405,1.709,16.907,-1.404
-0.898,0.130,-0.406,0.793,17.212,-2.075
-0.885,0.134,-0.405,0.427,17.090,-2.380
-0.873,0.137,-0.408,1.404,16.174,-2.380
-0.867,0.138,-0.415,2.136,15.076,-1.831
-0.861,0.135,-0.420,1.831,13.611,-0.610
-0.866,0.126,-0.423,1.892,13.000,1.404
-0.872,0.114,-0.423,2.930,13.733,2.808
-0.880,0.105,-0.427,3.540,15.625,3.723
-0.894,0.093,-0.426,2.930,18.799,3.418
-0.906,0.076,-0.421,0.427,23.254,1.648
-0.913,0.061,-0.410,-2.502,27.161,-0.916
-0.916,0.054,-0.388,-3.967,30.090,-2.991
-0.917,0.057,-0.359,-3.967,30.701,-5.066
-0.921,0.076,-0.331,-1.953,27.893,-5.493
-0.930,0.100,-0.313,2.136,22.278,-3.845
-0.941,0.120,-0.307,5.981,15.320,-1.709
-0.946,0.135,-0.309,8.423,8.911,0.854
-0.949,0.139,-0.321,9.583,4.883,3.296
-0.944,0.143,-0.344,8.789,2.136,4.272
-0.936,0.138,-0.367,6.653,0.732,4.272
-0.927,0.132,-0.389,4.089,0.732,3.784
-0.917,0.127,-0.406,1.648,1.282,3.418
-0.908,0.124,-0.406,-0.183,1.770,2.808
-0.910,0.127,-0.396,-0.793,3.296,2.930
-0.904,0.125,-0.383,-0.854,4.700,2.686
-0.902,0.131,-0.367,-1.709,5.066,2.136
-0.906,0.131,-0.358,-2.563,4.639,1.953
-0.915,0.134,-0.356,-3.113,3.723,2.380
-0.925,0.134,-0.360,-2.930,2.930,2.380
-0.933,0.135,-0.362,-2.319,3.296,2.808
-0.930,0.133,-0.361,-2.075,4.272,2.991
-0.923,0.129,-0.364,-2.380,5.066,2.686
-0.922,0.125,-0.359,-2.502,5.676,2.441
-0.917,0.116,-0.353,-2.014,6.226,2.563
-0.910,0.114,-0.346,-0.183,5.493,2.747
-0.914,0.116,-0.346,2.502,4.150,3.845
-0.918,0.114,-0.351,4.089,3.418,4.761
-0.926,0.112,-0.358,3.845,3.967,4.639

0.010,0.087,2.631,19.897,-213.318,5.920
0.026,0.117,2.729,11.536,-242.187,1.465
0.030,0.066,2.788,-0.610,-267.090,-2.136
0.037,-0.022,2.825,-17.700,-296.814,-6.775
0.084,-0.083,2.903,-35.400,-332.581,-13.123
0.095,-0.119,2.957,-44.189,-368.286,-17.639
0.100,-0.139,2.938,-40.833,-405.090,-20.203
0.125,-0.116,2.889,-27.954,-444.275,-22.095
0.124,-0.155,2.687,-7.324,-481.873,-25.574
0.150,-0.101,2.408,14.771,-510.376,-33.447
0.135,-0.124,2.014,27.100,-523.743,-45.410
0.167,-0.153,1.548,20.142,-525.818,-61.401
0.163,-0.138,1.100,2.930,-518.372,-81.604
0.153,-0.069,0.764,-12.085,-496.521,-99.182
0.173,0.006,0.490,-22.095,-463.745,-107.544
0.192,0.086,0.279,-28.381,-430.908,-107.605
0.257,0.174,0.118,-29.846,-403.870,-99.182
0.318,0.230,-0.042,-23.926,-379.883,-83.984
0.388,0.316,-0.218,-16.357,-362.244,-64.880
0.479,0.381,-0.450,-12.756,-349.365,-47.058
0.561,0.433,-0.668,-16.785,-338.623,-32.349
0.618,0.448,-0.870,-25.879,-323.486,-17.944
0.658,0.410,-1.059,-36.499,-303.894,-3.418
0.672,0.332,-1.268,-50.171,-285.034,9.399
0.688,0.247,-1.441,-66.162,-269.409,19.836
0.688,0.101,-1.630,-77.087,-251.587,28.625
0.676,-0.049,-1.812,-80.566,-233.887,38.391
0.640,-0.159,-1.934,-72.754,-215.210,48.340
0.556,-0.303,-2.052,-56.580,-190.186,55.725
0.444,-0.393,-2.089,-42.908,-160.950,60.303
0.281,-0.435,-2.039,-34.607,-127.747,56.946
0.080,-0.436,-1.895,-28.809,-89.111,45.776
-0.121,-0.355,-1.625,-22.278,-48.889,30.579
-0.346,-0.255,-1.299,-12.085,-12.146,15.747
-0.550,-0.157,-0.965,-0.183,13.000,-12.573
-0.815,0.024,-0.433,26.306,16.968,-9.827
-0.890,0.072,-0.301,36.072,1.160,-10.315
-0.920,0.130,-0.263,39.673,-19.714,-9.094
-0.939,0.169,-0.303,40.283,-38.086,-8.545
-0.914,0.189,-0.414,39.124,-48.950,-8.545
-0.846,0.192,-0.565,38.025,-53.711,-8.057
-0.756,0.175,-0.757,41.016,-54.199,-7.080
-0.693,0.177,-0.909,42.053,-49.072,-4.272
-0.662,0.143,-1.025,42.542,-33.203,-0.854
-0.648,0.116,-1.032,37.537,-8.240,1.404
-0.630,0.086,-0.957,28.381,18.188,1.892
-0.642,0.076,-0.823,21.118,39.429,2.869
-0.685,0.083,-0.676,14.526,51.086,4.150
-0.761,0.089,-0.541,13.733,55.298,5.981
-0.849,0.105,-0.428,16.113,53.589,8.545
-0.907,0.126,-0.353,18.433,48.340,10.559
-0.962,0.153,-0.291,18.860,41.992,10.864
-1.000,0.174,-0.258,16.357,35.645,9.827
-1.008,0.182,-0.249,10.071,29.907,6.409
-1.005,0.193,-0.266,0.793,24.475,0.732
-0.978,0.200,-0.301,-8.057,19.104,-5.554
-0.946,0.203,-0.344,-16.235,13.428,-10.559
-0.899,0.205,-0.389,-21.362,6.897,-12.207
-0.867,0.200,-0.433,-20.386,0.793,-10.010
-0.847,0.186,-0.474,-17.029,-3.723,-5.188
-0.840,0.160,-0.513,-14.771,-6.104,-0.916
-0.842,0.134,-0.543,-15.259,-6.287,2.319
-0.855,0.111,-0.564,-17.578,-4.089,4.578
-0.862,0.095,-0.573,-20.569,-0.488,5.493
-0.864,0.080,-0.577,-23.743,4.272,5.493
-0.865,0.073,-0.562,-27.588,8.362,5.066
-0.870,0.072,-0.538,-29.724,11.780,4.578
-0.866,0.075,-0.510,-30.396,13.184,4.150
-0.872,0.082,-0.488,-28.931,11.536,3.906
-0.880,0.096,-0.461,-24.963,8.789,3.906
-0.886,0.104,-0.445,-19.043,6.042,3.906
-0.882,0.120,-0.439,-13.123,3.479,3.174
-0.885,0.145,-0.442,-7.568,1.770,2.014
-0.880,0.152,-0.451,-3.723,1.709,1.160
-0.870,0.150,-0.461,-1.221,2.869,0.793
-0.855,0.140,-0.480,1.221,3.784,0.671
-0.845,0.129,-0.496,3.235,5.371,0.854
-0.834,0.113,-0.502,4.150,7.751,1.038
-0.825,0.098,-0.496,3.296,10.071,0.732
-0.824,0.089,-0.482,1.770,11.353,-0.061
-0.829,0.086,-0.467,1.282,11.536,-0.305
-0.835,0.088,-0.461,1.831,11.292,0.000
-0.846,0.087,-0.465,2.930,10.437,1.038
-0.863,0.087,-0.473,4.944,9.827,2.563
-0.878,0.085,-0.481,7.019,10.132,3.662
-0.890,0.086,-0.485,7.751,11.414,3.601
-0.898,0.087,-0.484,7.507,13.306,2.258
-0.906,0.095,-0.479,6.653,15.503,0.000
-0.907,0.105,-0.465,5.554,17.212,-2.197
-0.906,0.114,-0.452,4.456,17.822,-3.723
-0.901,0.128,-0.433,3.540,16.907,-4.456
-0.895,0.136,-0.422,4.028,14.404,-3.845
-0.885,0.141,-0.420,5.005,10.803,-2.014
-0.879,0.145,-0.428,5.615,6.897,0.427
-0.876,0.140,-0.437,6.470,3.357,2.869
-0.876,0.137,-0.446,5.615,2.014,4.333
-0.874,0.135,-0.446,2.686,2.075,4.395
-0.869,0.129,-0.455,-0.854,3.174,3.296
-0.865,0.132,-0.464,-3.601,4.150,2.014
-0.861,0.134,-0.474,-5.188,4.944,0.488
-0.864,0.137,-0.480,-6.592,6.104,-0.793
-0.866,0.134,-0.478,-7.996,7.996,-1.160
-0.869,0.133,-0.461,-8.545,9.277,-0.732
-0.876,0.126,-0.451,-7.996,9.399,0.366
-0.877,0.120,-0.440,-6.653,7.874,2.014
-0.882,0.112,-0.439,-4.700,5.493,3.296
-0.891,0.113,-0.439,-3.845,3.906,4.150
-0.896,0.111,-0.442,-3.662,3.479,4.089
-0.895,0.111,-0.444,-3.601,4.272,3.479
-0.892,0.114,-0.442,-3.418,5.676,2.380
-0.891,0.117,-0.440,-3.113,7.202,1.282
-0.891,0.118,-0.433,-2.441,8.667,0.854
-0.893,0.115,-0.429,-1.221,9.399,0.854
-0.894,0.116,-0.420,0.732,9.705,1.282
-0.895,0.114,-0.411,2.319,9.521,1.831
-0.891,0.115,-0.404,2.502,8.240,2.075
-0.890,0.114,-0.404,2.075,6.531,2.014
-0.886,0.118,-0.412,1.404,4.700,1.770
-0.888,0.121,-0.427,0.977,3.296,1.648

-0.170,-0.472,2.374,-12.695,-36.621,-19.531
-0.184,-0.438,2.625,-12.512,-69.763,-35.400
-0.148,-0.340,2.731,-19.409,-112.915,-54.260
-0.035,-0.213,2.817,-34.485,-157.349,-72.327
0.033,-0.110,2.857,-54.993,-192.261,-84.656
0.036,-0.028,2.812,-75.745,-218.140,-91.675
0.069,0.032,2.764,-89.355,-241.882,-94.116
0.120,0.069,2.689,-88.867,-267.029,-90.942
0.182,0.139,2.607,-72.754,-291.870,-82.947
0.239,0.205,2.567,-42.419,-317.139,-68.665
0.311,0.219,2.498,-14.709,-346.497,-52.246
0.361,0.201,2.332,-2.808,-378.906,-40.161
0.381,0.133,2.072,-0.061,-407.410,-35.889
0.398,0.074,1.772,-1.099,-430.359,-37.659
0.411,0.060,1.501,-1.587,-444.275,-43.274
0.392,0.094,1.260,1.221,-443.970,-49.683
0.346,0.157,1.064,3.723,-434.204,-54.993
0.292,0.227,0.884,-0.366,-425.354,-58.533
0.327,0.246,0.743,-10.559,-423.706,-59.937
0.371,0.302,0.588,-24.048,-430.298,-59.998
0.426,0.338,0.381,-31.799,-440.735,-59.204
0.483,0.388,0.135,-36.865,-449.219,-56.519
0.544,0.435,-0.110,-42.908,-450.317,-48.706
0.551,0.461,-0.339,-50.659,-439.331,-34.973
0.525,0.473,-0.546,-56.580,-415.955,-17.822
0.485,0.463,-0.727,-58.594,-387.817,-0.183
0.456,0.445,-0.833,-57.983,-359.253,14.587
0.452,0.374,-0.926,-58.105,-330.322,26.062
0.463,0.289,-1.010,-61.462,-307.678,31.189
0.474,0.201,-1.142,-66.650,-293.030,29.968
0.501,0.113,-1.265,-73.181,-284.058,26.245
0.529,-0.013,-1.416,-79.529,-277.405,24.048
0.507,-0.141,-1.549,-85.571,-270.264,25.818
0.425,-0.242,-1.684,-89.722,-259.094,31.738
0.311,-0.339,-1.847,-88.501,-242.004,38.391
0.181,-0.370,-1.993,-82.397,-216.309,43.091
0.053,-0.399,-2.127,-68.115,-174.561,44.006
-0.062,-0.420,-2.125,-48.218,-118.896,42.664
-0.187,-0.437,-1.978,-28.503,-57.739,38.757
-0.319,-0.423,-1.708,-9.583,-5.554,32.288
-0.429,-0.410,-1.392,9.521,30.884,23.132
-0.562,-0.366,-1.058,26.245,48.706,13.062
-0.702,-0.277,-0.781,33.997,50.903,5.127
-0.807,-0.160,-0.556,35.278,44.617,-0.427
-0.891,-0.051,-0.402,31.372,32.471,-3.479
-0.915,0.047,-0.353,26.062,16.724,-5.615
-0.901,0.148,-0.406,20.020,1.038,-7.324
-0.854,0.216,-0.512,14.404,-7.812,-8.057
-0.795,0.251,-0.621,9.460,-8.484,-7.507
-0.740,0.254,-0.725,6.958,-2.747,-6.409
-0.691,0.256,-0.792,9.033,7.202,-5.188
-0.656,0.245,-0.833,17.151,20.508,-2.808
-0.635,0.227,-0.815,29.480,35.034,0.122
-0.628,0.192,-0.748,40.344,47.729,4.822
-0.660,0.161,-0.640,41.870,53.772,9.460
-0.722,0.130,-0.532,35.767,52.979,12.390
-0.796,0.113,-0.444,26.001,47.913,13.489
-0.888,0.112,-0.374,13.916,42.297,12.573
-0.959,0.112,-0.324,2.441,38.635,10.071
-0.999,0.115,-0.291,-4.944,35.156,6.409
-1.012,0.109,-0.295,-9.888,32.898,2.319
-1.006,0.105,-0.325,-12.268,30.273,-1.404
-0.978,0.105,-0.348,-11.841,27.161,-4.211
-0.957,0.101,-0.353,-9.949,23.926,-5.920
-0.929,0.092,-0.362,-9.399,19.104,-5.249
-0.898,0.090,-0.392,-10.437,11.230,-3.723
-0.877,0.100,-0.448,-10.071,2.441,-2.197
-0.871,0.117,-0.499,-9.521,-2.441,-0.488
-0.866,0.127,-0.533,-11.658,-2.380,0.610
-0.853,0.131,-0.551,-14.404,-0.061,1.038
-0.838,0.121,-0.569,-14.587,3.174,0.610
-0.827,0.118,-0.585,-12.207,5.310,0.244
-0.826,0.115,-0.598,-8.240,7.446,0.061
-0.833,0.116,-0.593,-4.700,10.559,0.122
-0.837,0.112,-0.570,-2.014,14.465,0.244
-0.847,0.112,-0.533,-0.793,17.517,0.183
-0.855,0.116,-0.495,-0.610,18.127,-0.122
-0.864,0.124,-0.469,0.244,15.991,-0.488
-0.870,0.135,-0.463,1.953,12.512,-0.427
-0.875,0.152,-0.462,3.174,9.094,0.122
-0.878,0.155,-0.467,4.272,7.690,0.549
-0.869,0.157,-0.468,4.395,8.301,0.610
-0.853,0.150,-0.470,3.540,10.010,0.427
-0.841,0.140,-0.480,2.136,11.047,0.122
-0.835,0.122,-0.492,1.465,11.658,0.366
-0.831,0.104,-0.498,1.587,12.024,1.221
-0.836,0.090,-0.495,2.747,12.512,2.380
-0.846,0.078,-0.492,4.272,13.245,3.357
-0.858,0.071,-0.482,4.272,13.733,4.089
-0.874,0.067,-0.474,2.502,14.099,3.845
-0.892,0.072,-0.465,0.610,14.404,2.686
-0.906,0.083,-0.451,0.000,15.564,1.038
-0.913,0.090,-0.438,-0.732,17.151,-0.427
-0.911,0.096,-0.433,-2.136,17.700,-1.526
-0.907,0.102,-0.429,-2.563,17.334,-1.953
-0.906,0.106,-0.424,-1.587,15.991,-2.075
-0.901,0.116,-0.421,-1.282,13.550,-1.709
-0.895,0.120,-0.428,-1.587,10.620,-1.160
-0.892,0.125,-0.438,-2.441,7.629,-0.732
-0.896,0.132,-0.447,-3.174,5.127,-0.244
-0.896,0.136,-0.457,-3.052,4.089,0.854
-0.889,0.135,-0.463,-2.258,4.028,2.014
-0.888,0.138,-0.463,-1.404,4.333,3.113
-0.894,0.140,-0.454,-1.709,5.676,3.052
-0.894,0.131,-0.445,-2.808,7.385,2.380
-0.884,0.123,-0.443,-3.906,8.362,1.709
-0.877,0.115,-0.448,-3.540,8.362,0.977
-0.877,0.106,-0.457,-3.113,8.179,0.549
-0.872,0.098,-0.463,-3.052,8.118,0.671
-0.867,0.091,-0.464,-1.770,7.935,1.160
-0.861,0.087,-0.461,-0.488,7.385,1.587
-0.862,0.093,-0.459,0.488,6.592,1.343
-0.863,0.099,-0.461,1.465,5.981,1.282
-0.866,0.106,-0.464,1.892,5.554,0.977
-0.873,0.112,-0.468,1.831,6.531,0.610
-0.878,0.119,-0.465,1.343,8.301,-0.122
-0.884,0.125,-0.454,0.488,10.803,-1.282
-0.890,0.129,-0.434,-1.343,13.672,-2.380
-0.893,0.134,-0.410,-3.723,15.869,-3.418

0.094,0.049,2.557,-31.311,-170.959,-17.456
0.155,0.099,2.650,-28.564,-202.454,-22.583
0.220,0.117,2.712,-25.696,-234.741,-24.292
0.259,0.100,2.728,-23.682,-267.029,-22.278
0.284,0.072,2.670,-19.897,-298.462,-19.287
0.279,0.030,2.568,-15.686,-328.674,-17.151
0.259,-0.006,2.472,-14.282,-357.117,-15.564
0.189,-0.053,2.361,-16.907,-383.606,-15.381
0.134,-0.127,2.237,-19.104,-410.767,-17.151
0.114,-0.184,2.122,-18.127,-437.256,-20.020
0.104,-0.222,1.933,-9.705,-460.449,-27.039
0.114,-0.205,1.676,3.235,-478.455,-38.940
0.141,-0.150,1.385,15.503,-489.624,-53.650
0.185,-0.089,1.109,20.020,-493.164,-69.336
0.228,-0.041,0.820,15.686,-488.281,-82.092
0.261,0.082,0.527,4.333,-480.835,-88.196
0.337,0.243,0.343,-3.723,-469.971,-89.844
0.374,0.325,0.183,-6.287,-450.745,-83.313
0.390,0.352,-0.010,-11.414,-429.016,-66.650
0.410,0.404,-0.178,-18.372,-413.940,-46.936
0.446,0.428,-0.325,-19.592,-399.109,-28.931
0.483,0.415,-0.521,-17.273,-381.470,-12.878
0.528,0.402,-0.726,-17.395,-365.662,-0.793
0.570,0.365,-0.961,-21.362,-352.051,6.226
0.640,0.290,-1.231,-29.541,-335.571,9.644
0.710,0.170,-1.537,-42.358,-318.726,10.620
0.778,0.045,-1.838,-59.448,-303.162,12.207
0.820,-0.085,-2.091,-73.792,-283.813,15.991
0.810,-0.237,-2.314,-80.444,-256.714,21.790
0.760,-0.358,-2.456,-79.773,-224.426,27.405
0.627,-0.413,-2.512,-70.068,-185.425,32.227
0.405,-0.400,-2.440,-51.819,-134.521,34.973
0.121,-0.371,-2.230,-32.471,-73.364,35.339
-0.163,-0.298,-1.885,-15.442,-10.742,32.043
-0.425,-0.218,-1.444,-0.854,46.570,24.719
-0.638,-0.130,-0.958,15.259,90.332,14.771
-0.797,-0.056,-0.459,30.151,111.450,5.798
-0.923,-0.018,-0.031,39.612,106.262,0.122
-1.025,0.013,0.208,42.175,73.853,-1.526
-1.083,0.077,0.223,38.940,24.475,-1.343
-1.105,0.154,0.078,32.654,-19.104,-1.770
-1.082,0.196,-0.138,24.902,-43.640,-4.028
-1.025,0.211,-0.358,17.944,-50.842,-6.836
-0.940,0.229,-0.528,11.963,-48.828,-7.812
-0.851,0.216,-0.658,11.963,-40.161,-7.019
-0.765,0.185,-0.781,15.930,-27.100,-3.967
-0.692,0.156,-0.870,21.484,-12.329,-0.549
-0.651,0.125,-0.874,25.269,4.700,3.296
-0.655,0.088,-0.781,24.536,22.888,6.958
-0.707,0.073,-0.651,17.700,34.302,8.972
-0.776,0.082,-0.526,12.390,39.307,9.277
-0.852,0.100,-0.424,14.465,40.222,9.216
-0.909,0.123,-0.355,18.921,38.086,9.216
-0.946,0.144,-0.329,20.874,34.668,7.935
-0.970,0.155,-0.319,18.799,32.410,5.371
-0.969,0.148,-0.325,14.771,32.043,2.136
-0.954,0.140,-0.319,9.766,31.311,-0.854
-0.940,0.130,-0.311,4.028,27.893,-3.052
-0.929,0.137,-0.310,-2.014,21.606,-4.333
-0.916,0.136,-0.330,-6.042,13.123,-5.127
-0.911,0.138,-0.355,-8.362,4.333,-5.127
-0.909,0.142,-0.385,-9.888,-1.831,-4.150
-0.898,0.140,-0.437,-11.169,-4.944,-2.991
-0.890,0.140,-0.488,-12.390,-5.432,-2.441
-0.876,0.124,-0.536,-12.817,-3.662,-1.709
-0.867,0.117,-0.564,-13.184,-0.244,-0.916
-0.867,0.109,-0.563,-13.611,4.089,0.183
-0.873,0.093,-0.549,-14.648,7.812,1.465
-0.884,0.082,-0.531,-17.517,9.705,2.625
-0.900,0.080,-0.508,-20.752,9.583,2.991
-0.913,0.080,-0.486,-22.644,8.850,3.235
-0.923,0.086,-0.465,-24.109,7.874,3.174
-0.927,0.093,-0.447,-23.437,7.019,2.563
-0.922,0.101,-0.427,-20.813,5.737,1.770
-0.917,0.118,-0.418,-15.686,4.211,0.488
-0.906,0.138,-0.409,-10.681,2.625,-1.038
-0.895,0.146,-0.413,-7.141,1.648,-2.136
-0.881,0.154,-0.423,-5.005,1.221,-2.625
-0.871,0.155,-0.432,-3.723,1.831,-3.052
-0.861,0.148,-0.430,-2.136,3.967,-2.625
-0.853,0.128,-0.426,-1.160,5.737,-1.587
-0.841,0.106,-0.425,-0.488,6.042,-0.061
-0.844,0.089,-0.430,0.488,5.920,2.014
-0.849,0.072,-0.438,1.526,5.920,3.540
-0.858,0.056,-0.442,2.380,6.042,4.700
-0.868,0.045,-0.451,2.869,6.348,4.517
-0.880,0.040,-0.462,2.258,6.775,3.296
-0.891,0.040,-0.472,1.160,7.263,1.099
-0.899,0.051,-0.480,0.427,8.118,-1.099
-0.908,0.068,-0.483,0.488,9.521,-3.113
-0.911,0.089,-0.477,1.099,11.230,-4.700
-0.911,0.111,-0.459,1.953,13.000,-5.188
-0.901,0.131,-0.437,3.479,13.977,-4.578
-0.889,0.144,-0.416,4.944,13.123,-3.296
-0.885,0.153,-0.402,5.371,10.315,-1.526
-0.887,0.153,-0.395,5.127,6.531,0.793
-0.890,0.148,-0.400,4.639,2.686,2.686
-0.888,0.140,-0.417,4.028,-0.061,3.601
-0.886,0.129,-0.439,2.686,-1.343,3.418
-0.887,0.124,-0.457,0.183,-1.343,2.441
-0.887,0.115,-0.465,-2.502,0.427,1.404
-0.881,0.107,-0.469,-4.089,2.747,0.488
-0.877,0.105,-0.467,-5.066,4.517,-0.488
-0.879,0.107,-0.454,-5.432,5.859,-0.671
-0.882,0.100,-0.436,-5.066,7.080,-0.061
-0.877,0.097,-0.417,-4.639,6.958,0.549
-0.880,0.095,-0.406,-4.150,5.676,1.526
-0.884,0.098,-0.404,-3.662,4.272,2.075
-0.887,0.097,-0.408,-3.723,3.479,2.136
-0.889,0.095,-0.415,-3.784,2.930,1.892
-0.890,0.100,-0.422,-3.662,3.052,1.221
-0.887,0.102,-0.431,-3.296,3.784,0.244
-0.882,0.106,-0.438,-2.930,4.578,-0.549
-0.883,0.109,-0.445,-1.892,5.310,-0.671
-0.889,0.115,-0.452,-0.854,5.981,-0.671
-0.890,0.116,-0.454,0.488,6.775,-0.366
-0.890,0.114,-0.448,2.258,8.118,0.183
-0.887,0.115,-0.443,3.296,9.155,0.183
-0.887,0.119,-0.434,3.113,9.583,0.183

0.192,-0.177,2.468,-0.732,-99.854,-3.540
0.201,-0.139,2.528,7.080,-127.563,-11.292
0.218,-0.126,2.481,15.503,-157.104,-20.203
0.254,-0.114,2.397,16.907,-185.181,-28.259
0.285,-0.108,2.293,11.047,-207.336,-35.522
0.282,-0.104,2.194,0.793,-223.572,-41.748
0.271,-0.112,2.066,-12.573,-237.305,-46.570
0.239,-0.120,1.966,-26.428,-249.512,-50.476
0.188,-0.129,1.825,-36.621,-260.986,-52.917
0.181,-0.127,1.703,-42.969,-276.489,-54.504
0.177,-0.091,1.599,-42.053,-296.143,-55.237
0.168,-0.069,1.460,-28.748,-316.956,-54.810
0.162,0.019,1.342,-11.108,-338.379,-53.833
0.127,0.083,1.176,5.676,-359.009,-52.979
0.081,0.117,0.965,13.550,-379.517,-53.223
0.052,0.154,0.737,10.620,-398.743,-55.786
0.051,0.189,0.554,2.563,-414.185,-59.692
0.041,0.234,0.404,-6.042,-421.204,-61.462
0.019,0.267,0.272,-12.939,-419.617,-59.265
0.014,0.294,0.160,-18.677,-413.818,-53.650
0.030,0.318,0.084,-21.912,-404.419,-45.105
0.020,0.301,-0.015,-21.973,-395.325,-33.630
0.019,0.277,-0.136,-21.851,-390.320,-22.156
0.044,0.294,-0.225,-20.447,-388.794,-12.085
0.057,0.271,-0.342,-15.747,-385.315,-4.944
0.057,0.222,-0.484,-13.489,-380.249,-2.136
0.056,0.224,-0.594,-17.639,-373.840,-1.770
0.023,0.205,-0.687,-27.039,-357.849,-2.991
-0.057,0.140,-0.829,-39.001,-333.374,-4.578
-0.061,0.132,-0.984,-53.650,-311.951,-5.493
0.015,0.090,-1.146,-65.125,-296.387,-7.751
0.123,0.022,-1.387,-70.801,-286.621,-9.827
0.206,-0.023,-1.685,-73.975,-279.053,-8.423
0.213,-0.073,-1.984,-75.073,-265.015,-4.517
0.159,-0.119,-2.189,-71.655,-233.948,5.005
0.051,-0.181,-2.252,-57.861,-182.129,19.592
-0.054,-0.261,-2.139,-36.316,-115.967,35.339
-0.198,-0.322,-1.876,-14.099,-51.453,45.044
-0.348,-0.334,-1.525,0.916,0.305,45.471
-0.489,-0.332,-1.163,10.620,36.621,37.109
-0.643,-0.296,-0.827,14.587,55.542,23.682
-0.793,-0.211,-0.519,14.648,58.838,11.047
-0.911,-0.121,-0.282,17.395,50.537,3.418
-0.987,-0.039,-0.120,23.010,33.875,0.000
-1.031,0.043,-0.062,28.015,14.099,-0.183
-1.045,0.108,-0.104,29.663,-4.517,0.000
-1.003,0.168,-0.202,26.062,-20.508,-1.221
-0.941,0.203,-0.331,21.301,-31.433,-2.747
-0.878,0.232,-0.480,16.235,-37.048,-5.005
-0.815,0.233,-0.630,10.132,-36.011,-7.568
-0.756,0.238,-0.736,3.845,-28.992,-8.057
-0.713,0.219,-0.798,0.549,-18.738,-7.263
-0.699,0.201,-0.812,0.244,-7.202,-4.578
-0.726,0.193,-0.756,2.869,3.601,-0.305
-0.788,0.178,-0.652,9.766,14.893,4.761
-0.851,0.157,-0.536,18.677,25.330,9.338
-0.897,0.137,-0.436,26.306,32.593,11.902
-0.914,0.109,-0.369,30.396,35.522,11.719
-0.929,0.099,-0.320,27.588,34.790,9.094
-0.931,0.083,-0.303,18.555,30.273,5.005
-0.937,0.073,-0.300,6.531,23.132,0.854
-0.935,0.073,-0.314,-3.235,15.564,-2.136
-0.926,0.084,-0.350,-8.667,7.935,-3.845
-0.917,0.089,-0.401,-10.681,0.610,-4.395
-0.905,0.089,-0.452,-10.559,-4.578,-3.235
-0.893,0.079,-0.501,-8.972,-7.080,-1.770
-0.887,0.080,-0.543,-8.179,-6.348,-0.793
-0.879,0.072,-0.564,-8.728,13.306,-1.831
-0.876,0.070,-0.545,-10.254,8.179,-1.892
-0.877,0.076,-0.513,-10.254,12.024,-1.892
-0.884,0.078,-0.482,-10.864,13.489,-1.282
-0.884,0.089,-0.452,-12.756,12.024,-0.732
-0.890,0.099,-0.439,-12.878,7.996,-0.671
-0.894,0.111,-0.445,-11.169,3.967,-0.549
-0.894,0.123,-0.458,-9.338,1.648,-0.610
-0.887,0.128,-0.475,-8.057,1.587,-0.916
-0.881,0.129,-0.484,-6.836,3.601,-1.038
-0.869,0.114,-0.490,-5.615,7.202,-1.221
-0.857,0.100,-0.489,-4.517,10.437,-1.648
-0.855,0.094,-0.474,-3.052,13.306,-1.526
-0.863,0.083,-0.452,-1.465,15.259,-0.671
-0.869,0.078,-0.426,-0.793,15.686,0.671
-0.880,0.071,-0.403,0.061,14.465,2.441
-0.895,0.068,-0.386,0.732,12.634,3.845
-0.909,0.062,-0.370,0.610,10.498,4.517
-0.921,0.058,-0.374,0.549,8.118,4.578
-0.927,0.058,-0.393,0.854,6.104,4.150
-0.929,0.061,-0.416,1.770,5.127,3.418
-0.925,0.063,-0.434,3.235,5.615,2.441
-0.917,0.063,-0.442,4.333,7.385,1.282
-0.907,0.059,-0.439,4.395,9.033,0.122
-0.898,0.058,-0.434,3.906,9.521,-1.221
-0.890,0.065,-0.435,2.991,8.240,-2.075
-0.882,0.081,-0.437,2.197,6.592,-2.502
-0.883,0.099,-0.440,1.282,4.272,-2.441
-0.884,0.111,-0.447,1.160,2.502,-1.892
-0.885,0.119,-0.448,1.648,1.526,-0.366
-0.884,0.118,-0.446,2.441,1.465,1.404
-0.887,0.117,-0.437,2.380,1.770,3.113
-0.884,0.103,-0.438,1.709,1.709,3.479
-0.880,0.099,-0.441,-0.183,1.709,3.174
-0.872,0.099,-0.447,-1.770,1.343,2.258
-0.867,0.098,-0.457,-2.808,1.404,1.221
-0.868,0.100,-0.462,-3.967,1.343,0.427
-0.873,0.103,-0.457,-4.578,2.258,0.427
-0.881,0.101,-0.444,-4.517,3.662,0.732
-0.882,0.099,-0.431,-4.456,4.272,0.977
-0.885,0.096,-0.422,-4.150,4.211,1.160
-0.889,0.097,-0.417,-3.357,3.723,1.526
-0.896,0.097,-0.415,-2.197,3.357,1.648
-0.895,0.091,-0.416,-1.343,3.784,2.075
-0.891,0.082,-0.424,-0.977,4.211,2.319
-0.885,0.073,-0.436,-0.305,4.150,1.709
-0.885,0.071,-0.447,0.366,4.578,0.793
-0.888,0.067,-0.451,1.038,5.798,-0.061
-0.889,0.064,-0.450,1.709,7.263,-0.488
-0.885,0.062,-0.444,2.441,8.911,-0.366
-0.884,0.068,-0.438,2.502,9.583,-0.732
-0.882,0.076,-0.440,1.709,9.521,-1.282

0.138,0.133,2.336,21.362,-224.976,-10.742
0.144,0.083,2.325,20.081,-247.742,-8.911
0.162,0.052,2.326,17.151,-268.982,-8.728
0.188,0.054,2.344,21.851,-291.016,-9.155
0.207,0.030,2.327,33.264,-314.941,-9.583
0.231,-0.001,2.318,40.039,-340.027,-9.094
0.221,-0.090,2.233,35.706,-368.164,-8.179
0.209,-0.196,2.018,22.278,-398.804,-12.573
0.212,-0.270,1.795,9.094,-424.561,-23.376
0.175,-0.291,1.551,3.418,-435.120,-35.950
0.107,-0.267,1.314,2.502,-432.495,-48.950
0.057,-0.172,1.140,1.343,-424.011,-59.021
0.025,-0.147,0.957,-2.197,-416.748,-65.430
0.045,-0.094,0.756,-10.620,-412.659,-71.411
0.094,-0.001,0.620,-18.982,-407.776,-77.576
0.133,0.037,0.492,-23.926,-396.790,-78.857
0.184,0.079,0.456,-29.053,-385.620,-74.097
0.202,0.133,0.449,-30.701,-377.197,-62.439
0.238,0.062,0.416,-30.457,-375.427,-46.082
0.268,0.070,0.316,-32.166,-382.874,-32.349
0.357,0.081,0.094,-25.818,-392.456,-24.414
0.423,0.122,-0.215,-20.386,-401.917,-24.841
0.473,0.134,-0.585,-27.100,-401.001,-28.076
0.504,0.089,-0.947,-45.837,-387.390,-28.870
0.518,0.043,-1.241,-66.528,-363.770,-23.865
0.530,-0.044,-1.520,-75.989,-333.618,-15.869
0.601,-0.133,-1.735,-76.782,-306.946,-7.935
0.693,-0.259,-1.953,-74.524,-288.635,0.244
0.799,-0.394,-2.387,-70.984,-277.954,0.916
0.691,-0.385,-2.554,-65.369,-260.498,2.563
0.442,-0.315,-2.621,-54.077,-218.628,7.629
0.143,-0.232,-2.505,-34.851,-148.621,14.771
-0.149,-0.181,-2.171,-9.338,-61.584,19.836
-0.397,-0.115,-1.659,15.503,19.470,19.714
-0.570,-0.054,-1.012,38.757,76.477,14.526
-0.750,-0.021,-0.418,55.054,97.290,6.165
-0.959,0.058,0.000,52.551,82.642,-3.967
-1.121,0.146,0.186,37.415,42.419,-14.160
-1.198,0.247,0.146,21.912,-4.211,-20.386
-1.206,0.328,0.005,13.855,-43.030,-20.508
-1.132,0.344,-0.207,18.188,-65.063,-15.076
-0.983,0.304,-0.480,29.419,-73.120,-6.897
-0.816,0.243,-0.756,35.461,-74.158,-0.244
-0.665,0.163,-0.988,33.508,-65.857,4.578
-0.579,0.101,-1.141,24.292,-49.805,7.080
-0.543,0.064,-1.210,18.433,-26.733,7.812
-0.568,0.028,-1.141,17.639,2.319,8.240
-0.628,0.006,-0.944,19.897,30.701,10.376
-0.699,0.008,-0.674,20.691,48.767,12.939
-0.796,-0.001,-0.436,19.836,52.734,15.381
-0.880,0.011,-0.296,18.066,43.030,17.456
-0.944,0.044,-0.255,16.602,25.574,18.005
-0.991,0.066,-0.278,13.306,10.376,15.015
-1.010,0.107,-0.325,5.005,3.601,9.460
-0.980,0.111,-0.389,-4.944,2.808,1.709
-0.922,0.128,-0.453,-13.672,4.395,-5.920
-0.857,0.153,-0.507,-18.494,5.066,-11.597
-0.805,0.171,-0.544,-17.883,4.578,-13.794
-0.760,0.169,-0.559,-14.404,4.395,-12.512
-0.736,0.164,-0.552,-10.559,3.845,-8.057
-0.740,0.140,-0.561,-9.033,1.831,-3.601
-0.757,0.126,-0.574,-9.949,-0.366,-0.610
-0.779,0.105,-0.592,-11.108,-0.671,1.587
-0.797,0.088,-0.612,-14.160,1.587,2.502
-0.811,0.066,-0.631,-19.592,5.371,1.343
-0.823,0.058,-0.630,-24.658,9.827,-0.366
-0.834,0.049,-0.618,-27.161,13.611,-1.709
-0.841,0.046,-0.602,-25.940,15.503,-2.075
-0.844,0.047,-0.581,-21.362,14.832,-1.709
-0.858,0.059,-0.560,-15.686,12.451,-0.488
-0.868,0.072,-0.533,-9.460,9.583,0.732
-0.876,0.084,-0.521,-3.845,6.897,1.587
-0.883,0.093,-0.519,0.000,4.883,1.404
-0.881,0.101,-0.520,2.075,4.517,0.061
-0.870,0.104,-0.521,2.625,5.249,-1.648
-0.851,0.108,-0.524,2.563,6.042,-2.686
-0.833,0.108,-0.538,2.197,6.653,-3.479
-0.818,0.107,-0.547,1.709,7.996,-3.540
-0.811,0.101,-0.536,1.160,10.193,-3.052
-0.804,0.093,-0.517,0.244,12.451,-2.563
-0.802,0.087,-0.501,-1.160,13.000,-2.258
-0.811,0.085,-0.501,-2.258,11.292,-1.831
-0.824,0.083,-0.514,-1.404,8.728,-0.793
-0.838,0.086,-0.532,0.977,6.836,0.793
-0.848,0.081,-0.546,3.540,6.592,2.441
-0.848,0.067,-0.549,5.249,8.057,3.296
-0.855,0.065,-0.547,5.371,10.437,3.235
-0.858,0.056,-0.533,5.615,13.000,2.258
-0.861,0.054,-0.518,5.127,14.832,0.061
-0.862,0.060,-0.510,3.845,15.442,-2.136
-0.864,0.069,-0.507,1.953,14.160,-3.601
-0.867,0.076,-0.497,0.610,12.085,-4.028
-0.868,0.093,-0.486,0.793,9.216,-3.174
-0.865,0.104,-0.485,2.075,5.005,-1.465
-0.862,0.103,-0.490,3.052,0.549,1.038
-0.863,0.103,-0.498,2.869,-2.441,3.174
-0.860,0.098,-0.516,0.610,-3.235,3.845
-0.857,0.094,-0.532,-2.930,-2.502,2.869
-0.846,0.089,-0.539,-5.371,-0.977,1.160
-0.835,0.093,-0.541,-6.775,0.549,0.244
-0.825,0.085,-0.543,-6.348,1.465,0.427
-0.820,0.083,-0.539,-5.127,2.197,1.526
-0.817,0.079,-0.533,-3.662,2.441,2.686
-0.816,0.073,-0.530,-2.869,2.441,3.235
-0.820,0.078,-0.528,-3.601,2.319,2.930
-0.828,0.081,-0.528,-3.784,2.625,2.136
-0.838,0.091,-0.524,-3.418,3.235,1.465
-0.848,0.098,-0.522,-2.563,4.211,1.038
-0.856,0.098,-0.508,-2.136,5.371,1.221
-0.856,0.094,-0.499,-2.197,6.165,1.343
-0.853,0.088,-0.498,-1.465,6.042,1.587
-0.852,0.081,-0.500,-0.305,5.493,1.953
-0.847,0.073,-0.507,0.366,4.822,2.014
-0.844,0.064,-0.509,0.732,4.517,1.770
-0.843,0.060,-0.513,1.282,4.700,1.343
-0.844,0.066,-0.520,1.465,5.127,0.610
-0.844,0.074,-0.515,1.343,6.042,-0.122
-0.848,0.079,-0.511,1.343,6.653,-0.244
-0.855,0.087,-0.505,1.465,6.592,0.061

0.142,0.068,2.555,-17.639,-165.527,-5.554
0.156,0.034,2.734,-29.053,-197.876,-7.629
0.202,-0.063,2.828,-35.156,-235.901,-9.033
0.322,-0.094,2.902,-36.316,-280.884,-10.803
0.430,-0.098,2.958,-30.701,-323.486,-13.855
0.468,-0.134,2.961,-21.912,-363.281,-15.564
0.427,-0.175,2.890,-9.033,-403.931,-16.479
0.401,-0.175,2.788,13.123,-446.350,-16.846
0.437,-0.152,2.712,37.537,-488.403,-15.564
0.485,-0.177,2.592,48.645,-526.917,-17.090
0.505,-0.232,2.374,42.786,-558.838,-26.062
0.527,-0.266,2.064,27.893,-582.581,-41.931
0.586,-0.286,1.691,14.099,-600.281,-63.354
0.734,-0.193,1.292,7.812,-612.976,-87.585
0.813,-0.051,0.794,10.315,-615.234,-111.084
0.818,0.160,0.396,8.301,-597.534,-124.451
0.774,0.327,0.054,-2.563,-559.326,-120.361
0.780,0.429,-0.249,-18.982,-515.259,-104.675
0.814,0.556,-0.379,-31.921,-476.074,-82.458
0.862,0.583,-0.443,-31.616,-435.852,-56.030
0.927,0.565,-0.571,-23.254,-403.748,-32.593
1.025,0.565,-0.805,-25.330,-387.390,-19.165
1.172,0.515,-1.130,-41.992,-379.456,-15.442
1.336,0.405,-1.549,-66.772,-371.033,-12.817
1.496,0.195,-2.091,-89.233,-361.389,-5.676
1.631,-0.066,-2.699,-103.516,-345.886,5.920
1.716,-0.301,-3.262,-106.628,-315.735,22.034
1.635,-0.521,-3.659,-97.168,-261.841,36.743
1.418,-0.647,-3.766,-76.538,-177.002,47.302
1.039,-0.699,-3.529,-50.110,-70.801,49.377
0.560,-0.645,-2.953,-24.963,40.588,43.091
0.073,-0.499,-2.102,-1.404,135.132,30.334
-0.383,-0.369,-1.176,24.658,191.650,14.343
-0.800,-0.216,-0.396,46.692,206.543,2.319
-1.160,-0.054,0.157,59.265,189.514,-4.272
-1.373,0.110,0.465,67.261,150.024,-7.141
-1.450,0.231,0.600,65.369,102.295,-8.057
-1.364,0.319,0.557,52.429,55.603,-9.277
-1.378,0.279,0.265,35.828,17.700,-11.719
-1.182,0.429,0.112,20.142,-11.536,-8.362
-1.024,0.323,-0.224,11.780,-30.945,-10.010
-0.856,0.304,-0.475,6.165,-39.551,-7.202
-0.738,0.256,-0.690,6.592,-35.950,-3.235
-0.656,0.209,-0.828,11.719,-25.757,0.061
-0.607,0.152,-0.888,19.226,-11.475,4.150
-0.606,0.101,-0.879,24.597,3.540,7.690
-0.649,0.068,-0.802,25.696,18.250,10.742
-0.720,0.060,-0.676,25.574,31.372,12.634
-0.794,0.057,-0.545,30.457,42.542,13.672
-0.860,0.053,-0.418,34.302,49.255,13.184
-0.917,0.080,-0.306,31.799,51.514,10.925
-0.955,0.095,-0.217,24.170,49.194,7.141
-0.984,0.111,-0.166,15.991,43.518,2.075
-0.994,0.126,-0.142,6.531,36.438,-2.808
-0.987,0.150,-0.136,-3.540,27.954,-6.897
-0.973,0.168,-0.163,-12.512,18.188,-9.705
-0.948,0.174,-0.219,-20.081,8.850,-10.498
-0.919,0.183,-0.294,-24.658,0.549,-9.583
-0.899,0.187,-0.372,-25.574,-5.249,-8.301
-0.882,0.177,-0.453,-26.428,-7.935,-7.507
-0.874,0.161,-0.522,-28.564,-7.996,-6.897
-0.859,0.153,-0.576,-28.564,-6.226,-5.249
-0.863,0.140,-0.617,-26.672,-2.686,-3.296
-0.873,0.131,-0.629,-25.452,1.221,-1.221
-0.887,0.115,-0.621,-24.353,5.005,1.221
-0.907,0.108,-0.581,-23.132,8.545,2.991
-0.923,0.105,-0.535,-21.790,11.414,3.784
-0.942,0.115,-0.479,-22.156,12.268,3.479
-0.946,0.127,-0.430,-21.912,11.475,1.831
-0.943,0.141,-0.392,-20.264,10.010,-0.366
-0.930,0.164,-0.368,-17.151,7.080,-2.014
-0.911,0.178,-0.369,-12.390,3.235,-2.380
-0.891,0.182,-0.388,-7.751,0.183,-1.770
-0.869,0.173,-0.402,-4.089,-1.160,0.427
-0.847,0.157,-0.411,-0.854,-1.587,3.174
-0.839,0.131,-0.429,2.075,-1.648,5.493
-0.832,0.109,-0.453,3.418,-1.160,6.836
-0.831,0.087,-0.470,4.089,0.366,7.019
-0.841,0.070,-0.476,4.211,2.869,6.470
-0.853,0.060,-0.467,3.052,6.226,5.859
-0.867,0.047,-0.451,1.160,9.094,4.395
-0.879,0.044,-0.427,-0.305,11.475,2.563
-0.896,0.055,-0.412,-0.244,12.451,0.977
-0.913,0.075,-0.400,0.610,12.512,-0.610
-0.922,0.089,-0.392,1.404,12.512,-1.282
-0.919,0.108,-0.386,2.686,12.146,-0.916
-0.915,0.118,-0.392,4.944,10.376,-0.122
-0.906,0.132,-0.405,6.775,8.118,0.732
-0.901,0.141,-0.419,7.874,6.104,1.404
-0.900,0.147,-0.423,7.751,5.188,1.770
-0.901,0.149,-0.430,6.592,4.456,1.343
-0.896,0.153,-0.438,4.944,4.639,0.793
-0.895,0.148,-0.444,3.662,4.517,0.427
-0.894,0.142,-0.440,3.723,4.150,1.343
-0.891,0.132,-0.436,4.761,3.479,2.441
-0.886,0.119,-0.429,4.822,2.441,3.418
-0.889,0.116,-0.426,3.662,1.282,3.357
-0.887,0.112,-0.422,1.770,0.854,2.869
-0.882,0.115,-0.422,-0.916,0.122,1.770
-0.879,0.125,-0.428,-2.930,-0.610,0.671
-0.878,0.137,-0.438,-4.089,-0.854,-0.122
-0.873,0.142,-0.447,-5.005,-0.244,-0.122
-0.868,0.146,-0.459,-6.287,0.854,-0.427
-0.864,0.148,-0.467,-7.385,2.869,-0.122
-0.860,0.145,-0.469,-8.850,5.615,-0.183
-0.858,0.145,-0.465,-9.521,8.118,0.183
-0.863,0.134,-0.457,-8.789,9.949,1.221
-0.870,0.123,-0.450,-7.751,10.925,2.747
-0.888,0.114,-0.431,-6.653,10.620,4.028
-0.906,0.103,-0.419,-5.920,10.559,4.944
-0.922,0.104,-0.404,-5.310,10.315,4.639
-0.930,0.107,-0.390,-4.761,10.010,3.540
-0.934,0.113,-0.380,-4.456,10.071,2.075
-0.927,0.118,-0.376,-4.272,9.338,0.916
-0.920,0.120,-0.384,-3.967,8.179,0.549
-0.911,0.121,-0.392,-3.357,7.263,1.282
-0.900,0.116,-0.398,-2.258,6.958,2.075
-0.889,0.109,-0.404,-1.343,6.958,2.686
-0.880,0.098,-0.411,-1.404,6.836,2.625

0.257,-0.031,2.409,16.602,-186.096,-9.888
0.330,-0.077,2.499,0.671,-203.369,-13.855
0.384,-0.127,2.543,-11.108,-221.008,-18.433
0.443,-0.194,2.531,-16.418,-242.371,-23.437
0.458,-0.246,2.481,-16.479,-264.954,-28.015
0.415,-0.319,2.432,-12.512,-287.354,-32.043
0.390,-0.383,2.369,-5.493,-311.707,-35.522
0.384,-0.413,2.330,5.981,-337.463,-40.466
0.349,-0.420,2.258,21.667,-361.633,-46.631
0.349,-0.404,2.144,34.302,-384.094,-53.528
0.355,-0.395,1.947,39.978,-407.349,-64.331
0.368,-0.348,1.688,37.964,-428.650,-79.163
0.419,-0.276,1.327,29.724,-445.801,-93.933
0.477,-0.175,0.970,18.433,-452.576,-108.765
0.495,-0.039,0.692,4.639,-445.679,-118.408
0.495,0.111,0.537,-6.042,-428.406,-116.699
0.465,0.240,0.460,-13.367,-409.851,-105.042
0.396,0.296,0.314,-16.602,-398.865,-88.379
0.398,0.327,0.139,-16.968,-396.790,-71.655
0.399,0.392,-0.092,-12.695,-398.376,-57.800
0.415,0.477,-0.389,-8.667,-400.391,-49.133
0.439,0.546,-0.694,-11.719,-398.926,-44.189
0.481,0.568,-0.981,-22.217,-389.404,-40.039
0.533,0.553,-1.219,-37.292,-375.183,-34.424
0.568,0.461,-1.534,-56.091,-361.023,-26.917
0.672,0.297,-1.929,-79.163,-354.431,-20.813
0.771,0.119,-2.337,-100.037,-354.431,-15.381
0.811,-0.046,-2.698,-111.938,-351.685,-10.254
0.724,-0.157,-2.952,-112.122,-333.740,-4.517
0.563,-0.200,-3.017,-98.877,-286.438,4.700
0.309,-0.242,-2.898,-75.073,-212.524,16.541
0.045,-0.261,-2.580,-50.537,-128.784,25.208
-0.228,-0.212,-2.122,-29.175,-49.072,27.832
-0.496,-0.158,-1.585,-10.315,18.738,24.414
-0.714,-0.062,-0.984,3.662,67.383,17.700
-0.858,0.004,-0.489,16.602,89.478,8.545
-0.993,0.061,-0.117,26.306,84.106,-0.977
-1.059,0.124,0.066,29.846,57.739,-10.376
-1.077,0.196,0.099,26.367,25.146,-16.663
-1.076,0.256,0.013,19.531,-2.686,-18.188
-1.055,0.297,-0.102,14.099,-21.118,-15.076
-1.007,0.292,-0.235,12.207,-29.907,-8.972
-0.929,0.261,-0.385,13.000,-32.593,-2.747
-0.858,0.221,-0.536,13.611,-30.151,1.465
-0.802,0.167,-0.673,11.719,-22.461,4.089
-0.750,0.117,-0.750,7.507,-11.108,4.883
-0.735,0.070,-0.771,5.066,2.319,4.883
-0.758,0.034,-0.731,3.845,15.442,5.798
-0.786,0.015,-0.667,2.258,24.963,8.301
-0.834,0.028,-0.571,1.892,31.494,10.315
-0.903,0.041,-0.482,3.235,38.269,11.108
-0.943,0.067,-0.392,2.258,44.250,9.583
-0.961,0.099,-0.330,0.916,47.241,5.432
-0.958,0.142,-0.273,0.732,47.363,0.732
-0.960,0.175,-0.222,2.563,44.495,-1.282
-0.961,0.190,-0.172,4.456,38.208,-0.122
-0.966,0.178,-0.158,4.028,29.175,2.319
-0.957,0.165,-0.183,1.831,18.066,3.357
-0.946,0.159,-0.242,-1.038,7.690,3.296
-0.926,0.142,-0.316,-4.211,0.610,2.319
-0.917,0.137,-0.373,-9.766,-2.869,0.977
-0.901,0.113,-0.428,-14.343,-4.517,0.488
-0.887,0.090,-0.476,-15.747,-3.906,1.099
-0.879,0.063,-0.506,-14.343,-1.404,2.625
-0.872,0.034,-0.521,-11.047,1.831,4.089
-0.874,0.021,-0.514,-8.728,5.066,4.700
-0.898,0.010,-0.496,-8.972,7.996,4.517
-0.923,0.022,-0.464,-11.902,9.705,3.113
-0.943,0.045,-0.429,-14.526,10.315,0.916
-0.956,0.082,-0.405,-15.869,10.376,-1.221
-0.960,0.122,-0.390,-16.052,9.766,-2.319
-0.953,0.156,-0.374,-16.113,9.277,-2.686
-0.939,0.179,-0.354,-15.686,8.972,-2.625
-0.926,0.185,-0.333,-13.489,8.362,-2.197
-0.919,0.178,-0.312,-10.803,6.409,-1.343
-0.917,0.160,-0.305,-7.690,2.747,0.549
-0.914,0.138,-0.319,-3.906,-1.160,2.686
-0.912,0.116,-0.342,-0.427,-3.113,3.845
-0.907,0.097,-0.367,0.610,-3.540,4.211
-0.901,0.075,-0.397,-0.183,-2.869,3.906
-0.895,0.060,-0.423,-0.916,-2.075,3.296
-0.891,0.050,-0.447,-0.671,-0.427,2.991
-0.891,0.047,-0.452,-0.183,2.380,2.808
-0.893,0.047,-0.436,0.244,5.493,2.747
-0.899,0.049,-0.419,-0.183,7.629,1.892
-0.900,0.063,-0.396,-1.160,8.301,1.099
-0.906,0.086,-0.386,-0.610,7.507,-0.305
-0.908,0.110,-0.383,0.854,6.042,-1.160
-0.905,0.134,-0.392,1.770,4.944,-1.221
-0.897,0.145,-0.403,2.625,4.395,-0.610
-0.895,0.148,-0.408,3.479,4.761,0.610
-0.898,0.138,-0.406,4.150,6.470,2.075
-0.900,0.120,-0.400,2.747,7.874,2.869
-0.899,0.107,-0.394,0.671,8.057,2.808
-0.902,0.096,-0.395,-0.244,7.019,2.380
-0.907,0.089,-0.399,-1.099,5.249,1.587
-0.911,0.085,-0.401,-2.441,3.784,0.732
-0.916,0.083,-0.401,-3.052,3.174,0.549
-0.919,0.084,-0.393,-3.296,3.052,0.549
-0.920,0.087,-0.387,-3.235,3.113,0.183
-0.918,0.094,-0.389,-3.235,2.747,-0.305
-0.916,0.099,-0.388,-3.418,2.441,-0.488
-0.914,0.101,-0.385,-3.418,2.625,-0.427
-0.910,0.099,-0.380,-3.540,3.174,0.122
-0.901,0.098,-0.378,-3.845,3.113,0.366
-0.898,0.094,-0.374,-4.089,3.113,0.305
-0.901,0.090,-0.373,-5.127,3.052,0.305
-0.901,0.083,-0.383,-6.042,2.258,0.122
-0.903,0.085,-0.397,-5.493,1.526,-0.183
-0.908,0.090,-0.408,-4.272,2.075,-0.061
-0.904,0.092,-0.413,-3.601,3.723,0.122
-0.899,0.091,-0.412,-2.991,5.188,0.244
-0.895,0.096,-0.413,-2.441,6.165,0.061
-0.896,0.098,-0.410,-1.648,7.385,0.000
-0.895,0.099,-0.403,-1.221,8.972,-0.305
-0.893,0.102,-0.396,-1.404,10.620,0.061
-0.895,0.109,-0.382,-1.343,11.902,0.061
-0.908,0.118,-0.368,-1.892,12.329,0.122
-0.913,0.124,-0.364,-2.930,11.230,0.427

0.043,-0.140,2.426,14.465,-313.232,2.625
0.079,-0.107,2.356,26.245,-346.924,-0.183
0.072,-0.128,2.101,33.752,-369.751,-3.967
0.082,-0.163,1.857,29.480,-376.526,-11.047
0.093,-0.205,1.671,12.695,-368.286,-21.240
0.075,-0.250,1.529,-5.493,-350.830,-32.166
0.077,-0.234,1.495,-20.386,-336.548,-40.649
0.058,-0.198,1.515,-24.780,-331.665,-44.067
0.026,-0.193,1.449,-20.752,-340.637,-41.565
-0.006,-0.165,1.249,-11.292,-359.436,-38.635
-0.006,-0.118,1.029,5.310,-376.099,-38.757
-0.013,-0.054,0.819,23.193,-381.531,-39.673
-0.017,0.001,0.587,31.616,-378.662,-41.565
0.046,0.085,0.454,25.391,-371.704,-53.101
0.180,0.168,0.327,-9.033,-348.694,-54.138
0.247,0.194,0.148,-20.813,-344.849,-52.795
0.370,0.260,-0.024,-22.949,-349.182,-50.232
0.456,0.304,-0.182,-21.729,-351.685,-43.640
0.509,0.314,-0.417,-27.466,-354.980,-34.363
0.606,0.299,-0.706,-35.522,-360.046,-25.574
0.641,0.203,-1.068,-45.044,-366.821,-17.395
0.754,0.032,-1.528,-61.951,-376.953,-9.399
0.927,-0.149,-2.005,-84.412,-390.686,-2.136
1.075,-0.362,-2.488,-102.844,-399.353,0.854
1.138,-0.494,-2.874,-107.605,-390.564,1.648
1.055,-0.545,-3.166,-77.698,-293.457,11.719
0.515,-0.321,-3.124,-32.898,-191.284,20.752
0.184,-0.258,-2.528,-2.441,-71.655,27.527
-0.119,-0.151,-1.664,11.536,23.682,23.926
-0.428,-0.034,-0.798,22.034,74.036,9.949
-0.779,0.158,-0.141,26.428,71.899,-6.714
-1.099,0.357,0.200,21.912,36.255,-18.127
-1.306,0.512,0.327,16.724,-5.249,-18.127
-1.351,0.513,0.296,18.311,-39.246,-8.301
-1.243,0.424,0.069,21.545,-68.298,2.930
-1.005,0.294,-0.308,19.165,-91.919,9.644
-0.768,0.138,-0.787,12.939,-105.103,10.376
-0.532,0.037,-1.235,7.324,-105.042,8.911
-0.401,-0.047,-1.533,3.479,-85.754,6.531
-0.396,-0.160,-1.670,3.784,-46.265,5.798
-0.441,-0.206,-1.611,9.583,3.723,6.470
-0.448,-0.173,-1.270,22.156,53.528,6.775
-0.546,-0.175,-0.822,29.968,89.111,8.972
-0.667,-0.155,-0.453,20.752,95.154,7.446
-0.825,-0.039,-0.287,4.089,75.989,2.014
-0.948,0.120,-0.272,-3.235,50.171,-1.831
-1.020,0.250,-0.284,-2.808,33.142,-1.953
-1.032,0.305,-0.289,-3.967,27.405,-0.122
-0.996,0.308,-0.295,-9.766,26.306,0.916
-0.936,0.285,-0.340,-14.221,24.353,-0.366
-0.845,0.240,-0.398,-12.512,20.264,-2.930
-0.778,0.176,-0.472,-9.094,14.893,-5.127
-0.719,0.133,-0.549,-9.705,7.874,-4.944
-0.700,0.088,-0.628,-10.864,1.648,-2.808
-0.717,0.044,-0.671,-10.376,-0.610,0.671
-0.758,-0.005,-0.687,-9.521,2.686,3.784
-0.786,-0.035,-0.675,-10.986,9.033,3.601
-0.811,-0.047,-0.671,-14.465,14.343,0.427
-0.847,-0.028,-0.662,-18.005,18.616,-3.113
-0.867,-0.000,-0.631,-18.982,22.888,-7.202
-0.859,0.062,-0.526,-15.381,23.499,-7.324
-0.849,0.094,-0.502,-11.597,17.639,-6.287
-0.842,0.128,-0.510,-7.019,10.376,-4.639
-0.846,0.142,-0.530,-3.357,5.737,-2.808
-0.838,0.142,-0.552,-1.160,4.639,-1.221
-0.824,0.126,-0.568,1.099,5.615,0.366
-0.808,0.104,-0.589,2.869,7.080,0.916
-0.801,0.094,-0.600,3.052,9.583,0.610
-0.795,0.078,-0.587,2.747,13.123,-0.244
-0.792,0.065,-0.560,1.953,15.503,-0.061
-0.802,0.056,-0.525,1.648,15.686,0.732
-0.820,0.054,-0.497,1.465,14.404,1.831
-0.838,0.051,-0.493,1.831,11.902,2.930
-0.850,0.050,-0.506,1.770,9.644,3.174
-0.860,0.049,-0.524,1.831,8.972,3.052
-0.863,0.049,-0.532,1.648,10.010,1.892
-0.865,0.052,-0.534,1.282,11.353,0.671
-0.861,0.051,-0.536,1.099,11.841,-0.793
-0.859,0.054,-0.535,0.488,11.719,-2.075
-0.854,0.057,-0.533,-0.183,11.658,-2.930
-0.847,0.067,-0.522,0.305,10.864,-3.540
-0.843,0.071,-0.516,1.709,9.644,-3.052
-0.838,0.076,-0.509,1.953,7.507,-2.136
-0.838,0.090,-0.508,2.136,5.066,-0.977
-0.841,0.098,-0.512,3.113,2.563,0.061
-0.850,0.109,-0.516,2.014,1.160,0.793
-0.853,0.113,-0.520,-1.099,0.061,1.282
-0.852,0.111,-0.532,-3.540,-0.549,1.099
-0.849,0.109,-0.543,-4.761,0.061,1.099
-0.844,0.101,-0.555,-5.798,0.610,1.221
-0.841,0.090,-0.560,-6.348,1.099,1.526
-0.842,0.081,-0.559,-6.653,1.953,2.197
-0.839,0.066,-0.551,-6.897,3.113,2.747
-0.841,0.051,-0.536,-6.348,3.784,3.540
-0.840,0.036,-0.529,-5.310,3.845,4.456
-0.836,0.032,-0.530,-4.395,2.686,4.761
-0.838,0.036,-0.540,-3.296,1.343,4.333
-0.838,0.045,-0.556,-2.319,0.916,3.540
-0.833,0.053,-0.568,-1.526,1.587,2.563
-0.830,0.062,-0.574,-0.671,2.991,1.526
-0.825,0.063,-0.569,0.854,5.981,1.221
-0.819,0.061,-0.562,2.258,8.545,1.282
-0.810,0.064,-0.549,3.174,10.071,1.343
-0.810,0.056,-0.542,4.211,10.742,1.587
-0.806,0.084,-0.516,3.235,10.132,2.014
-0.818,0.072,-0.518,1.648,9.216,1.099
-0.831,0.087,-0.501,1.404,8.789,0.916
-0.847,0.089,-0.492,1.160,8.118,1.770
-0.854,0.089,-0.491,1.343,7.385,2.625
-0.859,0.089,-0.496,1.648,6.592,3.113
-0.861,0.084,-0.502,1.831,6.287,2.625
-0.858,0.083,-0.506,1.526,6.409,1.587
-0.849,0.076,-0.512,1.160,6.470,0.671
-0.845,0.075,-0.522,0.854,5.798,0.061
-0.846,0.074,-0.524,1.099,5.188,-0.061
-0.850,0.068,-0.520,0.916,5.432,0.122
-0.850,0.063,-0.514,0.305,5.310,0.366
-0.845,0.062,-0.515,0.427,4.028,0.366
-0.847,0.068,-0.522,0.732,2.930,0.488

