aX,aY,aZ,gX,gY,gZ
0.090,0.161,2.467,-30.640,-80.566,-28.259
0.084,0.132,2.563,-14.832,-113.098,-24.963
0.096,0.142,2.596,9.949,-145.020,-16.541
0.109,0.186,2.578,35.522,-172.607,-5.798
0.153,0.244,2.551,54.260,-194.946,2.258
0.197,0.309,2.545,64.392,-211.731,8.057
0.217,0.350,2.548,65.735,-224.731,10.864
0.228,0.372,2.542,61.035,-237.610,12.451
0.236,0.380,2.518,57.800,-251.709,16.296
0.237,0.380,2.441,63.538,-266.541,23.987
0.247,0.377,2.310,77.637,-279.541,35.461
0.282,0.377,2.162,95.520,-289.246,50.598
0.271,0.350,1.986,110.596,-296.082,65.430
0.260,0.298,1.778,120.300,-301.636,77.148
0.291,0.254,1.612,125.732,-306.335,85.388
0.390,0.229,1.561,125.244,-306.641,89.355
0.431,0.195,1.545,114.990,-302.917,86.609
0.431,0.147,1.556,102.417,-303.162,77.454
0.383,0.100,1.492,92.285,-311.584,64.758
0.362,0.067,1.374,87.402,-328.491,55.359
0.370,0.061,1.205,87.219,-346.680,54.626
0.383,0.034,1.002,90.637,-361.450,60.120
0.417,0.025,0.776,98.633,-372.559,68.726
0.466,-0.000,0.481,113.220,-381.165,78.125
0.547,-0.021,0.201,130.554,-386.353,84.717
0.649,-0.064,-0.037,146.240,-383.240,87.646
0.713,-0.044,-0.202,152.100,-372.253,85.388
0.730,-0.072,-0.297,148.315,-358.826,73.364
0.671,-0.130,-0.378,138.672,-347.778,53.101
0.577,-0.170,-0.466,126.770,-341.248,31.433
0.483,-0.184,-0.600,114.624,-340.088,12.756
0.451,-0.172,-0.781,107.056,-342.285,1.831
0.501,-0.173,-0.977,104.614,-344.238,2.258
0.559,-0.148,-1.207,106.018,-339.478,13.062
0.631,-0.118,-1.464,113.708,-323.364,27.771
0.654,-0.130,-1.748,124.939,-293.396,39.246
0.621,-0.117,-2.043,132.141,-250.061,42.725
0.475,-0.115,-2.287,132.385,-196.899,38.452
0.437,-0.025,-2.487,111.389,-132.080,29.968
0.365,0.045,-2.617,79.834,-53.345,23.193
0.163,0.074,-2.383,47.424,20.569,19.348
-0.124,0.049,-1.939,2.441,50.903,3.418
-0.289,0.019,-1.475,-63.538,54.504,-20.813
-0.415,-0.052,-1.078,-122.253,57.617,-34.485
-0.569,-0.080,-0.848,-156.433,63.232,-42.419
-0.727,-0.110,-0.681,-164.001,76.172,-43.152
-0.831,-0.138,-0.519,-148.315,98.633,-36.682
-0.908,-0.136,-0.374,-121.216,122.070,-23.193
-0.958,-0.147,-0.240,-94.360,141.113,-7.935
-0.994,-0.193,-0.085,-75.134,148.743,2.625
-1.007,-0.250,0.089,-67.017,140.198,5.981
-1.027,-0.306,0.268,-64.148,117.126,2.502
-1.036,-0.375,0.398,-61.279,85.999,-4.395
-1.059,-0.432,0.442,-55.237,54.443,-11.230
-1.078,-0.505,0.439,-45.959,30.518,-14.954
-1.069,-0.546,0.420,-36.194,12.573,-14.832
-1.036,-0.576,0.366,-25.330,1.709,-9.644
-0.987,-0.600,0.291,-13.000,-1.404,-2.930
-0.940,-0.615,0.229,-2.136,2.014,2.563
-0.917,-0.618,0.183,5.859,10.376,6.165
-0.898,-0.610,0.168,7.690,19.714,6.165
-0.869,-0.591,0.193,2.808,25.085,2.441
-0.864,-0.559,0.214,-4.944,24.292,-3.357
-0.863,-0.535,0.231,-10.559,19.531,-9.583
-0.867,-0.515,0.227,-11.719,13.123,-15.137
-0.883,-0.499,0.214,-7.507,8.179,-17.517
-0.906,-0.468,0.197,-1.892,5.066,-18.005
-0.929,-0.435,0.173,3.174,2.686,-17.090
-0.944,-0.412,0.142,6.836,0.366,-15.198
-0.957,-0.386,0.105,8.728,-1.770,-13.306
-0.959,-0.362,0.069,8.667,-3.235,-12.451
-0.964,-0.344,0.046,8.057,-3.906,-11.963
-0.974,-0.329,0.018,6.836,-2.991,-11.536
-0.971,-0.325,0.013,6.287,-2.563,-10.681
-0.970,-0.329,0.016,5.859,-3.601,-8.789
-0.965,-0.335,0.012,5.676,-6.409,-6.531
-0.954,-0.345,-0.009,5.859,-10.681,-4.578
-0.947,-0.361,-0.037,7.080,-15.686,-2.625
-0.937,-0.380,-0.062,7.751,-20.020,-1.282
-0.934,-0.405,-0.104,8.423,-22.095,-0.366
-0.923,-0.417,-0.127,8.423,-21.362,0.000
-0.914,-0.425,-0.150,7.446,-18.677,0.427
-0.906,-0.427,-0.166,5.554,-14.587,0.610
-0.902,-0.426,-0.166,3.540,-10.071,0.793
-0.895,-0.419,-0.159,0.977,-5.981,0.061
-0.890,-0.405,-0.147,-1.465,-3.296,-1.038
-0.883,-0.390,-0.137,-2.808,-2.319,-1.953
-0.878,-0.377,-0.121,-3.723,-2.197,-2.625
-0.877,-0.369,-0.109,-4.333,-1.953,-3.357
-0.877,-0.368,-0.098,-2.930,-2.075,-3.418
-0.879,-0.366,-0.090,-2.075,-2.197,-3.235
-0.886,-0.369,-0.083,-2.136,-2.258,-2.869
-0.897,-0.376,-0.078,-3.235,-2.014,-2.747
-0.909,-0.389,-0.065,-4.333,-1.770,-2.625
-0.919,-0.404,-0.047,-4.211,-0.671,-2.502
-0.928,-0.413,-0.031,-2.197,0.916,-1.526
-0.930,-0.418,-0.015,-0.061,2.869,-0.610
-0.931,-0.419,-0.003,2.625,4.395,0.427
-0.930,-0.417,0.002,5.554,4.578,1.282
-0.929,-0.411,0.001,7.629,3.357,1.404
-0.924,-0.404,-0.010,7.996,1.221,0.671
-0.922,-0.402,-0.023,7.507,-1.526,-0.122
-0.917,-0.400,-0.036,5.493,-4.517,-1.526
-0.916,-0.396,-0.048,3.845,-7.080,-2.686
-0.916,-0.393,-0.063,3.418,-7.874,-3.052
-0.915,-0.388,-0.074,3.784,-6.958,-2.625
-0.911,-0.388,-0.081,4.211,-5.066,-1.526
-0.906,-0.384,-0.090,4.883,-3.235,0.061
-0.903,-0.381,-0.105,4.639,-1.526,1.160
-0.897,-0.377,-0.103,4.395,0.366,1.465
-0.897,-0.375,-0.108,4.211,1.953,1.282
-0.897,-0.371,-0.111,2.991,2.808,0.732
-0.896,-0.369,-0.111,1.526,3.052,-0.122
-0.900,-0.369,-0.113,0.854,3.052,-0.122
-0.902,-0.371,-0.110,0.061,3.540,0.000
-0.903,-0.375,-0.102,-0.122,4.517,0.427
-0.904,-0.379,-0.092,-0.244,5.676,1.221
-0.905,-0.383,-0.084,-0.244,6.104,1.770
-0.903,-0.386,-0.077,-0.977,5.981,1.770

0.014,0.187,2.551,-37.415,-31.067,-12.329
0.002,0.226,2.700,-21.240,-67.017,-8.667
0.023,0.271,2.759,6.042,-105.469,0.732
0.043,0.313,2.749,36.743,-138.855,16.113
0.090,0.322,2.687,62.317,-165.771,33.875
0.143,0.316,2.614,77.454,-188.904,49.377
0.179,0.276,2.506,83.008,-210.144,59.998
0.217,0.244,2.391,83.069,-231.873,65.063
0.270,0.238,2.272,80.444,-252.869,66.345
0.310,0.234,2.153,77.759,-269.592,67.688
0.329,0.225,2.019,76.660,-281.860,70.984
0.405,0.176,1.937,78.796,-291.504,75.500
0.417,0.138,1.853,82.581,-299.500,79.834
0.360,0.092,1.695,92.773,-308.044,80.872
0.317,0.075,1.487,111.389,-317.017,79.651
0.293,0.118,1.254,133.179,-321.960,79.712
0.253,0.138,1.012,153.198,-322.449,80.688
0.220,0.148,0.796,167.847,-321.838,81.970
0.246,0.149,0.638,173.767,-321.533,83.130
0.268,0.111,0.519,168.091,-318.420,82.642
0.303,0.048,0.474,154.053,-312.683,79.102
0.302,-0.016,0.459,136.047,-307.495,72.693
0.261,-0.074,0.391,119.629,-308.411,62.805
0.256,-0.107,0.291,115.723,-316.711,53.955
0.278,-0.104,0.157,123.657,-327.637,50.232
0.299,-0.085,-0.025,139.282,-338.074,51.575
0.345,-0.028,-0.230,159.851,-348.083,55.725
0.401,0.039,-0.430,182.434,-356.018,60.608
0.410,0.014,-0.664,198.608,-356.506,61.646
0.351,-0.039,-0.878,202.576,-348.511,57.129
0.255,-0.067,-1.065,196.472,-336.487,47.668
0.202,-0.082,-1.234,184.814,-321.411,35.095
0.156,-0.088,-1.388,166.199,-302.673,21.179
0.113,-0.086,-1.534,142.578,-280.090,7.751
0.078,-0.061,-1.641,118.225,-254.517,-2.686
0.033,-0.045,-1.724,96.924,-224.060,-10.498
-0.026,-0.035,-1.768,79.529,-188.416,-16.296
-0.111,-0.055,-1.731,63.782,-149.170,-19.836
-0.222,-0.099,-1.608,44.678,-109.802,-24.170
-0.353,-0.166,-1.396,21.851,-73.120,-29.785
-0.489,-0.220,-1.136,-0.122,-40.771,-36.438
-0.585,-0.229,-0.862,-18.188,-18.982,-44.983
-0.693,-0.238,-0.589,-34.485,-16.235,-53.528
-0.769,-0.240,-0.380,-47.485,-32.166,-59.143
-0.814,-0.267,-0.299,-51.697,-52.490,-58.899
-0.833,-0.312,-0.335,-43.274,-65.613,-50.293
-0.840,-0.352,-0.450,-24.719,-65.918,-35.217
-0.830,-0.372,-0.583,-3.540,-53.284,-16.479
-0.810,-0.392,-0.696,12.451,-32.593,1.221
-0.794,-0.422,-0.760,18.555,-7.202,16.357
-0.785,-0.449,-0.766,10.010,20.081,24.902
-0.770,-0.469,-0.718,-8.362,44.983,26.184
-0.735,-0.514,-0.577,-31.311,63.904,21.973
-0.713,-0.549,-0.384,-49.377,72.754,14.343
-0.700,-0.547,-0.164,-54.443,70.679,3.418
-0.735,-0.546,-0.021,-44.800,58.960,-8.606
-0.766,-0.541,0.041,-29.358,40.833,-19.287
-0.826,-0.539,0.037,-17.395,21.912,-26.550
-0.882,-0.538,-0.002,-10.437,7.629,-28.931
-0.923,-0.524,-0.058,-6.531,0.854,-28.076
-0.943,-0.499,-0.110,-3.845,1.282,-25.085
-0.959,-0.462,-0.150,-1.343,6.470,-20.325
-0.971,-0.424,-0.173,-0.488,13.733,-15.747
-0.975,-0.388,-0.186,-1.282,19.836,-12.146
-0.978,-0.366,-0.183,-2.808,22.888,-9.827
-0.984,-0.356,-0.170,-3.052,22.705,-8.057
-0.986,-0.345,-0.152,-1.465,19.592,-6.775
-0.982,-0.331,-0.147,1.404,12.512,-4.578
-0.974,-0.335,-0.168,3.418,3.418,-2.380
-0.965,-0.354,-0.208,3.723,-4.333,-0.122
-0.950,-0.378,-0.250,3.418,-8.972,2.380
-0.932,-0.400,-0.291,3.479,-9.644,4.395
-0.905,-0.415,-0.321,3.113,-7.507,5.066
-0.877,-0.422,-0.343,2.441,-4.700,5.615
-0.856,-0.420,-0.361,0.000,-2.197,5.127
-0.838,-0.422,-0.371,-2.319,-0.732,3.784
-0.821,-0.419,-0.372,-4.639,0.244,2.136
-0.814,-0.412,-0.370,-6.348,0.732,0.305
-0.809,-0.402,-0.368,-7.446,0.854,-1.770
-0.809,-0.403,-0.364,-7.507,0.488,-2.625
-0.813,-0.403,-0.357,-7.690,1.221,-2.563
-0.817,-0.413,-0.348,-6.958,3.357,-1.892
-0.819,-0.421,-0.339,-5.920,6.775,-0.610
-0.821,-0.425,-0.333,-4.883,10.986,1.404
-0.825,-0.421,-0.327,-4.333,15.442,2.930
-0.824,-0.422,-0.316,-3.357,19.104,4.333
-0.824,-0.425,-0.293,-2.930,21.423,5.005
-0.828,-0.432,-0.259,-2.075,21.912,4.822
-0.835,-0.443,-0.222,-0.366,20.081,3.235
-0.847,-0.450,-0.193,1.282,16.479,0.549
-0.862,-0.452,-0.176,1.892,11.475,-2.869
-0.872,-0.447,-0.172,2.441,5.615,-5.432
-0.883,-0.445,-0.177,2.563,0.977,-7.263
-0.894,-0.443,-0.188,3.418,-1.099,-7.690
-0.902,-0.431,-0.205,5.493,-0.671,-7.141
-0.904,-0.422,-0.223,8.118,1.099,-5.615
-0.903,-0.409,-0.244,9.277,3.174,-4.272
-0.903,-0.399,-0.259,9.827,4.456,-2.625
-0.900,-0.389,-0.269,8.911,5.127,-2.014
-0.897,-0.379,-0.272,7.202,5.249,-2.136
-0.895,-0.369,-0.275,5.615,4.639,-2.563
-0.891,-0.363,-0.275,4.272,3.723,-2.991
-0.886,-0.360,-0.272,2.869,2.808,-3.418
-0.883,-0.363,-0.269,2.197,1.465,-2.930
-0.884,-0.369,-0.266,1.465,0.671,-2.441
-0.883,-0.376,-0.266,1.038,0.366,-1.953
-0.881,-0.384,-0.266,0.732,0.183,-1.343
-0.877,-0.389,-0.265,-0.122,0.366,-0.671
-0.872,-0.395,-0.259,-1.160,0.793,-0.366
-0.869,-0.399,-0.254,-0.977,1.282,0.610
-0.866,-0.405,-0.249,-0.854,1.587,1.221
-0.864,-0.407,-0.247,-0.793,1.465,1.648
-0.860,-0.410,-0.249,-0.427,1.038,1.831
-0.859,-0.412,-0.249,-0.366,0.671,1.831
-0.858,-0.412,-0.257,-0.488,0.610,1.343
-0.859,-0.408,-0.264,0.183,0.549,1.343
-0.860,-0.403,-0.274,0.122,0.793,1.160
-0.860,-0.400,-0.286,-0.916,1.099,0.793
-0.862,-0.394,-0.296,-1.587,1.404,0.366

0.097,-0.003,2.663,-24.475,-151.428,12.024
0.068,0.079,2.761,5.798,-167.419,13.184
-0.012,0.097,2.812,38.147,-182.434,17.822
-0.067,0.180,2.821,74.219,-203.064,26.306
-0.070,0.217,2.789,95.886,-224.915,35.095
-0.044,0.224,2.857,108.276,-249.634,43.884
-0.006,0.236,2.899,113.464,-275.757,50.781
0.012,0.247,2.854,112.244,-302.063,54.932
0.030,0.243,2.694,110.840,-325.134,59.143
0.082,0.243,2.493,114.807,-342.346,64.575
0.147,0.241,2.251,121.399,-347.900,70.801
0.176,0.238,1.993,129.395,-344.360,76.233
0.204,0.216,1.770,137.512,-337.097,77.820
0.220,0.209,1.596,140.869,-329.529,75.562
0.194,0.183,1.505,138.245,-323.792,69.946
0.157,0.186,1.431,133.850,-323.669,61.584
0.164,0.193,1.316,132.141,-331.421,54.810
0.189,0.206,1.207,134.094,-343.262,54.321
0.203,0.220,1.025,138.245,-354.736,58.105
0.266,0.191,0.812,147.766,-365.601,65.735
0.383,0.192,0.634,158.997,-373.230,74.463
0.468,0.181,0.409,169.189,-377.014,78.796
0.562,0.128,0.200,178.650,-379.517,78.247
0.643,0.119,-0.001,183.960,-377.625,75.623
0.700,0.107,-0.252,185.669,-373.596,69.763
0.758,0.077,-0.522,189.392,-368.347,62.195
0.792,0.066,-0.792,193.909,-359.070,54.810
0.782,0.085,-1.069,198.059,-344.238,47.668
0.753,0.141,-1.337,200.012,-327.454,38.574
0.720,0.191,-1.604,196.045,-312.500,28.748
0.704,0.237,-1.873,182.190,-297.058,18.311
0.675,0.285,-2.118,160.767,-271.790,8.118
0.564,0.322,-2.330,134.216,-230.835,-0.977
0.407,0.322,-2.435,104.309,-174.255,-9.216
0.201,0.294,-2.353,69.763,-109.619,-17.273
-0.015,0.242,-2.107,29.053,-46.204,-24.170
-0.210,0.156,-1.737,-16.479,6.836,-29.968
-0.381,0.087,-1.306,-58.716,44.189,-33.386
-0.526,-0.038,-0.845,-81.848,58.289,-34.729
-0.662,-0.144,-0.393,-92.529,44.922,-36.377
-0.778,-0.253,-0.094,-93.201,19.226,-34.485
-0.859,-0.373,0.010,-77.332,-4.700,-27.466
-0.897,-0.478,-0.037,-53.101,-19.226,-16.968
-0.916,-0.537,-0.176,-29.480,-20.325,-4.944
-0.903,-0.561,-0.314,-11.841,-11.353,6.165
-0.884,-0.567,-0.423,-2.869,2.869,15.808
-0.859,-0.562,-0.488,-3.784,20.203,21.790
-0.829,-0.557,-0.505,-9.705,37.720,23.865
-0.796,-0.564,-0.437,-17.639,52.612,22.156
-0.767,-0.564,-0.323,-22.583,58.899,16.296
-0.750,-0.553,-0.198,-22.400,53.528,7.263
-0.743,-0.535,-0.114,-17.944,38.574,-2.563
-0.769,-0.539,-0.093,-10.742,21.240,-11.963
-0.803,-0.548,-0.101,-3.479,8.057,-19.531
-0.834,-0.538,-0.131,2.014,2.747,-23.987
-0.858,-0.521,-0.163,6.592,4.761,-24.902
-0.874,-0.494,-0.160,8.423,10.925,-23.315
-0.897,-0.473,-0.158,5.310,17.761,-20.691
-0.895,-0.448,-0.151,-0.366,23.621,-18.311
-0.890,-0.422,-0.142,-5.127,27.405,-16.174
-0.885,-0.394,-0.124,-8.301,29.358,-14.343
-0.891,-0.367,-0.104,-7.385,29.480,-13.062
-0.904,-0.345,-0.100,-2.502,27.161,-11.719
-0.926,-0.331,-0.119,2.380,22.766,-10.254
-0.925,-0.316,-0.149,4.272,16.907,-8.728
-0.952,-0.326,-0.176,3.296,11.230,-7.141
-0.953,-0.340,-0.215,2.014,6.775,-5.371
-0.939,-0.337,-0.240,2.197,3.662,-3.174
-0.933,-0.338,-0.270,2.380,3.113,-0.793
-0.922,-0.349,-0.290,1.831,3.479,1.282
-0.910,-0.363,-0.302,0.427,3.967,2.380
-0.903,-0.380,-0.301,-1.160,3.723,2.991
-0.899,-0.394,-0.294,-3.235,3.235,2.197
-0.898,-0.406,-0.290,-5.066,2.563,0.610
-0.892,-0.421,-0.282,-6.226,2.319,-0.610
-0.888,-0.431,-0.273,-6.897,2.441,-1.465
-0.883,-0.437,-0.270,-7.507,2.930,-2.136
-0.880,-0.441,-0.262,-7.263,3.357,-2.258
-0.874,-0.438,-0.257,-8.057,4.395,-2.563
-0.873,-0.431,-0.254,-8.789,5.798,-2.686
-0.872,-0.419,-0.256,-8.423,7.874,-2.258
-0.874,-0.403,-0.261,-7.874,10.925,-1.831
-0.873,-0.385,-0.265,-8.179,14.160,-1.343
-0.868,-0.372,-0.265,-9.460,17.212,-0.183
-0.860,-0.364,-0.260,-11.963,19.775,0.610
-0.853,-0.358,-0.245,-13.672,22.217,1.892
-0.849,-0.353,-0.226,-13.000,23.987,3.601
-0.844,-0.359,-0.210,-9.766,23.560,4.761
-0.841,-0.360,-0.179,-7.507,20.325,4.944
-0.841,-0.395,-0.155,-4.517,13.977,4.089
-0.839,-0.430,-0.134,-2.380,7.324,1.709
-0.847,-0.458,-0.134,-0.244,2.808,-0.854
-0.862,-0.474,-0.135,2.380,1.526,-2.502
-0.872,-0.475,-0.143,4.822,2.686,-3.235
-0.885,-0.472,-0.148,6.165,4.883,-3.418
-0.897,-0.464,-0.148,7.935,6.470,-2.625
-0.903,-0.453,-0.150,8.423,6.836,-2.136
-0.906,-0.443,-0.153,7.996,5.737,-1.953
-0.906,-0.431,-0.164,6.592,3.601,-2.075
-0.908,-0.423,-0.176,4.822,1.404,-2.869
-0.908,-0.410,-0.186,3.418,0.061,-3.906
-0.913,-0.395,-0.197,3.540,-0.183,-4.333
-0.916,-0.383,-0.207,3.723,0.183,-4.639
-0.916,-0.370,-0.214,3.235,0.793,-4.456
-0.917,-0.361,-0.220,2.502,1.221,-4.089
-0.912,-0.357,-0.222,1.770,1.648,-3.479
-0.909,-0.359,-0.224,0.732,2.075,-2.686
-0.904,-0.361,-0.220,-0.061,2.197,-1.465
-0.895,-0.367,-0.219,-0.732,2.625,-0.366
-0.890,-0.376,-0.217,-1.526,2.991,0.610
-0.882,-0.387,-0.212,-2.808,2.991,1.038
-0.875,-0.396,-0.206,-4.211,2.747,0.671
-0.873,-0.401,-0.200,-5.005,2.991,-0.122
-0.875,-0.402,-0.195,-4.517,3.479,-0.610
-0.879,-0.401,-0.187,-4.089,3.906,-1.221
-0.884,-0.397,-0.183,-3.784,3.784,-1.892
-0.889,-0.396,-0.179,-4.211,3.418,-2.258
-0.893,-0.395,-0.176,-4.700,3.052,-2.319
-0.898,-0.393,-0.172,-4.944,2.930,-1.892

0.012,0.344,2.307,36.072,-106.384,8.301
-0.007,0.343,2.297,58.289,-135.010,22.156
-0.018,0.330,2.224,80.261,-161.438,35.034
-0.029,0.308,2.125,99.548,-183.716,45.471
-0.021,0.285,2.011,116.211,-199.402,53.711
0.000,0.254,1.918,127.808,-207.642,59.753
0.021,0.220,1.861,129.639,-208.496,63.416
0.030,0.194,1.853,121.826,-205.322,65.125
0.055,0.177,1.884,108.887,-202.271,63.538
0.082,0.163,1.944,95.581,-201.721,59.326
0.086,0.141,1.996,87.219,-205.200,54.871
0.056,0.133,1.994,89.111,-215.088,51.392
0.028,0.146,1.901,101.135,-231.750,50.659
0.005,0.160,1.736,118.225,-250.549,54.993
0.019,0.170,1.560,132.935,-266.113,62.134
0.033,0.182,1.395,140.137,-274.658,68.909
0.017,0.149,1.248,138.916,-278.320,70.251
0.017,0.057,1.142,132.385,-280.334,66.223
0.058,-0.018,1.136,120.605,-283.203,58.105
0.062,-0.052,1.156,109.802,-285.522,47.913
0.047,-0.076,1.117,104.553,-292.358,37.476
0.057,-0.091,1.026,105.225,-303.589,31.433
0.060,-0.084,0.906,109.741,-315.918,31.189
0.098,-0.124,0.792,119.141,-329.468,33.813
0.139,-0.131,0.649,130.859,-344.543,36.499
0.198,-0.134,0.454,145.630,-359.314,40.283
0.260,-0.155,0.232,162.048,-370.483,44.189
0.329,-0.120,0.037,174.194,-372.864,45.898
0.344,-0.111,-0.139,177.612,-365.906,42.480
0.319,-0.136,-0.377,175.781,-352.661,33.020
0.305,-0.153,-0.599,168.396,-337.341,20.203
0.288,-0.148,-0.811,156.616,-318.054,8.362
0.274,-0.132,-1.003,142.456,-294.189,-0.610
0.242,-0.111,-1.108,126.587,-266.357,-5.676
0.176,-0.113,-1.178,109.070,-234.314,-9.766
0.101,-0.135,-1.192,90.515,-203.430,-15.503
0.025,-0.143,-1.166,71.167,-176.697,-22.827
-0.046,-0.159,-1.094,54.443,-153.503,-30.518
-0.155,-0.171,-1.005,40.222,-133.057,-36.743
-0.268,-0.168,-0.910,29.358,-115.845,-40.833
-0.347,-0.136,-0.816,19.897,-103.333,-42.297
-0.413,-0.123,-0.752,11.475,-94.177,-40.771
-0.473,-0.154,-0.689,3.845,-84.229,-37.170
-0.537,-0.183,-0.615,1.892,-72.510,-31.860
-0.589,-0.200,-0.569,8.179,-60.974,-27.222
-0.619,-0.206,-0.565,19.897,-53.467,-23.499
-0.647,-0.212,-0.612,28.992,-50.415,-20.813
-0.671,-0.203,-0.691,29.541,-50.293,-18.372
-0.693,-0.186,-0.770,23.071,-49.500,-16.663
-0.705,-0.185,-0.818,14.526,-44.495,-15.442
-0.764,-0.162,-0.826,5.188,-35.767,-14.282
-0.797,-0.203,-0.766,-3.601,-24.109,-15.076
-0.839,-0.229,-0.662,-14.648,-12.695,-17.334
-0.867,-0.238,-0.550,-23.499,-5.005,-18.982
-0.878,-0.244,-0.466,-28.076,-0.549,-18.860
-0.882,-0.269,-0.417,-27.649,3.174,-15.076
-0.882,-0.301,-0.391,-22.461,9.827,-7.446
-0.875,-0.327,-0.380,-14.648,19.531,1.648
-0.859,-0.359,-0.357,-8.728,29.236,9.583
-0.837,-0.387,-0.307,-5.676,35.095,14.893
-0.828,-0.409,-0.231,-5.737,34.973,15.198
-0.837,-0.433,-0.154,-5.310,28.442,10.498
-0.858,-0.447,-0.103,-4.517,17.883,2.686
-0.878,-0.460,-0.081,-4.028,7.690,-4.944
-0.906,-0.470,-0.095,-2.808,1.038,-9.705
-0.924,-0.468,-0.124,0.671,-1.282,-10.437
-0.938,-0.462,-0.149,5.371,-0.061,-8.301
-0.960,-0.446,-0.188,10.498,3.174,-4.761
-0.957,-0.425,-0.208,14.282,5.798,-1.282
-0.947,-0.397,-0.221,15.015,5.981,0.854
-0.942,-0.372,-0.231,13.611,3.723,0.671
-0.937,-0.349,-0.249,11.719,-0.244,-1.099
-0.926,-0.319,-0.276,8.545,-4.639,-3.723
-0.930,-0.293,-0.303,5.859,-8.911,-6.531
-0.937,-0.283,-0.325,4.028,-11.047,-8.545
-0.940,-0.262,-0.341,3.296,-11.230,-9.338
-0.944,-0.253,-0.354,2.319,-10.254,-8.728
-0.943,-0.258,-0.366,1.770,-9.338,-6.042
-0.930,-0.262,-0.375,0.610,-7.690,-2.930
-0.914,-0.273,-0.382,-0.732,-5.432,0.305
-0.903,-0.298,-0.375,-2.441,-2.808,3.235
-0.894,-0.324,-0.356,-4.822,0.244,4.944
-0.883,-0.342,-0.336,-7.935,3.235,5.188
-0.864,-0.359,-0.319,-10.315,4.944,5.005
-0.849,-0.372,-0.305,-11.597,5.310,3.906
-0.842,-0.379,-0.295,-10.681,4.822,2.441
-0.840,-0.374,-0.302,-7.568,5.005,0.977
-0.839,-0.368,-0.317,-4.456,5.188,0.183
-0.839,-0.359,-0.337,-3.052,6.104,0.244
-0.836,-0.350,-0.354,-2.197,7.690,1.770
-0.836,-0.341,-0.363,-1.892,10.498,3.113
-0.839,-0.334,-0.357,-1.831,13.428,4.456
-0.848,-0.334,-0.336,-2.075,15.137,4.822
-0.858,-0.345,-0.296,-3.296,15.259,3.967
-0.874,-0.362,-0.247,-4.456,13.733,2.197
-0.889,-0.379,-0.208,-3.357,10.681,0.366
-0.903,-0.390,-0.191,-1.160,7.446,-1.099
-0.911,-0.393,-0.190,1.282,4.211,-1.892
-0.912,-0.392,-0.201,3.479,0.732,-1.709
-0.909,-0.391,-0.221,5.188,-1.831,-1.404
-0.907,-0.386,-0.246,6.653,-3.479,-1.038
-0.898,-0.376,-0.271,8.118,-4.395,-0.488
-0.891,-0.363,-0.296,8.240,-4.456,-0.549
-0.882,-0.351,-0.314,7.385,-3.906,-0.977
-0.874,-0.337,-0.329,5.920,-2.808,-1.404
-0.867,-0.327,-0.338,4.272,-1.892,-1.648
-0.865,-0.315,-0.340,2.625,-0.610,-1.648
-0.866,-0.314,-0.339,1.343,0.488,-1.465
-0.871,-0.318,-0.334,-0.671,1.404,-1.648
-0.875,-0.323,-0.323,-3.052,2.258,-1.770
-0.880,-0.327,-0.309,-4.700,3.113,-1.770
-0.883,-0.333,-0.297,-5.188,2.991,-1.770
-0.890,-0.339,-0.290,-4.883,2.747,-1.282
-0.896,-0.347,-0.284,-3.174,2.930,0.061
-0.899,-0.359,-0.282,-1.770,3.479,1.465
-0.891,-0.367,-0.277,-1.038,4.333,2.686
-0.883,-0.371,-0.271,-1.160,4.822,3.296
-0.876,-0.375,-0.267,-1.404,4.944,2.930
-0.875,-0.371,-0.273,-1.587,4.700,2.380

0.103,0.409,2.194,-7.507,-73.303,-4.578
0.079,0.429,2.304,4.944,-97.595,2.686
0.083,0.452,2.359,27.039,-121.277,14.099
0.119,0.464,2.367,53.406,-140.564,27.710
0.178,0.469,2.386,75.928,-155.273,41.321
0.211,0.443,2.399,88.745,-168.823,52.795
0.241,0.407,2.409,91.064,-187.622,59.326
0.267,0.380,2.401,87.891,-211.609,62.439
0.304,0.379,2.385,84.290,-236.938,64.514
0.350,0.377,2.370,84.167,-260.315,67.566
0.388,0.364,2.335,87.341,-280.579,70.679
0.394,0.351,2.251,94.849,-298.279,75.867
0.385,0.313,2.125,107.971,-316.101,81.482
0.366,0.291,1.973,123.840,-333.557,87.280
0.361,0.270,1.832,140.747,-348.816,93.018
0.315,0.234,1.642,154.480,-362.915,97.595
0.278,0.211,1.434,164.795,-377.930,101.868
0.296,0.183,1.251,171.936,-393.372,106.079
0.318,0.144,1.099,174.133,-407.532,106.995
0.349,0.098,0.952,172.913,-418.762,104.675
0.365,0.047,0.798,171.753,-425.415,100.159
0.368,0.025,0.606,171.753,-429.077,93.811
0.402,-0.000,0.390,175.354,-431.396,87.952
0.462,-0.042,0.201,179.993,-430.359,83.984
0.500,-0.072,0.075,181.030,-423.950,79.651
0.481,-0.067,-0.081,177.979,-415.222,70.984
0.497,-0.078,-0.242,176.697,-408.630,58.594
0.519,-0.097,-0.405,173.340,-401.367,46.082
0.535,-0.123,-0.570,166.199,-388.733,35.461
0.537,-0.112,-0.749,157.959,-371.155,28.076
0.533,-0.104,-0.982,154.175,-350.037,21.118
0.555,-0.095,-1.211,154.785,-325.806,13.611
0.554,-0.062,-1.431,152.100,-294.983,5.920
0.508,-0.019,-1.644,143.494,-257.507,-2.075
0.433,0.015,-1.787,128.052,-215.149,-10.254
0.320,0.053,-1.841,104.309,-168.274,-19.226
0.194,0.040,-1.760,74.890,-120.789,-28.687
0.006,0.043,-1.599,46.265,-78.430,-36.804
-0.144,0.018,-1.345,18.250,-45.654,-44.067
-0.275,0.010,-1.105,-8.667,-21.484,-46.753
-0.388,-0.051,-0.892,-22.888,-6.226,-45.593
-0.503,-0.093,-0.609,-28.198,-13.672,-44.556
-0.562,-0.098,-0.484,-34.302,-41.504,-44.067
-0.592,-0.109,-0.568,-33.081,-62.622,-40.527
-0.602,-0.108,-0.794,-21.118,-67.993,-33.752
-0.628,-0.086,-1.004,-3.601,-55.542,-22.888
-0.683,-0.100,-1.136,8.728,-29.480,-10.010
-0.731,-0.147,-1.136,7.141,-0.977,-0.793
-0.785,-0.217,-1.059,-7.568,25.330,3.296
-0.815,-0.303,-0.886,-31.128,44.556,1.587
-0.834,-0.410,-0.615,-53.833,56.396,-3.845
-0.861,-0.514,-0.306,-64.148,61.218,-12.207
-0.916,-0.540,-0.049,-60.547,54.688,-21.179
-0.954,-0.545,0.090,-46.997,38.086,-27.649
-1.006,-0.537,0.124,-32.898,17.578,-30.090
-1.039,-0.523,0.065,-19.653,0.244,-27.588
-1.051,-0.504,-0.023,-7.629,-8.728,-21.118
-1.041,-0.461,-0.107,1.953,-9.827,-12.329
-1.025,-0.421,-0.174,8.606,-4.944,-4.089
-0.994,-0.378,-0.220,11.597,1.099,2.991
-0.950,-0.334,-0.256,10.010,5.615,7.202
-0.901,-0.300,-0.281,6.775,6.714,8.850
-0.871,-0.281,-0.301,4.822,6.042,8.850
-0.846,-0.267,-0.326,5.310,3.357,7.507
-0.833,-0.265,-0.355,6.104,0.488,5.737
-0.829,-0.267,-0.388,5.493,-0.977,4.517
-0.832,-0.280,-0.408,2.991,-0.061,3.418
-0.833,-0.298,-0.413,-0.488,2.441,2.625
-0.832,-0.311,-0.416,-3.479,6.470,2.319
-0.831,-0.318,-0.419,-5.493,11.353,2.258
-0.834,-0.321,-0.419,-7.019,15.991,2.686
-0.837,-0.319,-0.414,-8.057,19.470,3.662
-0.842,-0.318,-0.406,-9.705,21.484,4.578
-0.852,-0.322,-0.397,-10.620,22.461,5.249
-0.861,-0.326,-0.388,-11.169,22.949,6.287
-0.862,-0.335,-0.386,-11.169,22.766,7.141
-0.864,-0.347,-0.391,-11.536,22.400,8.362
-0.862,-0.359,-0.382,-11.414,21.973,9.705
-0.867,-0.377,-0.362,-11.108,21.545,10.681
-0.868,-0.397,-0.333,-9.949,21.362,10.559
-0.870,-0.419,-0.296,-7.874,19.958,9.155
-0.870,-0.435,-0.256,-5.676,17.334,6.165
-0.877,-0.447,-0.229,-3.479,13.733,2.075
-0.883,-0.452,-0.219,-0.916,9.460,-2.136
-0.886,-0.446,-0.224,1.648,5.188,-5.615
-0.893,-0.436,-0.241,4.883,2.686,-7.751
-0.895,-0.421,-0.256,7.996,2.014,-8.423
-0.895,-0.404,-0.267,9.460,2.502,-7.996
-0.891,-0.389,-0.280,9.583,3.601,-6.409
-0.883,-0.381,-0.293,9.644,4.761,-4.761
-0.875,-0.369,-0.305,8.972,5.676,-3.662
-0.867,-0.355,-0.313,8.179,6.104,-3.113
-0.864,-0.340,-0.316,6.836,6.287,-3.540
-0.863,-0.339,-0.312,4.761,5.554,-4.456
-0.862,-0.335,-0.302,2.380,3.845,-5.005
-0.870,-0.329,-0.295,0.854,1.709,-5.676
-0.879,-0.329,-0.293,-0.305,-0.366,-6.348
-0.888,-0.327,-0.298,-0.977,-1.709,-5.920
-0.893,-0.328,-0.301,-1.160,-1.953,-5.005
-0.895,-0.329,-0.304,-0.916,-1.160,-3.723
-0.897,-0.331,-0.311,-0.305,-0.061,-2.136
-0.895,-0.333,-0.316,0.305,0.854,0.183
-0.889,-0.340,-0.318,0.122,1.160,2.197
-0.882,-0.351,-0.322,-0.488,1.099,3.052
-0.877,-0.357,-0.326,-1.099,1.099,3.113
-0.871,-0.356,-0.326,-2.014,1.465,1.770
-0.870,-0.352,-0.326,-2.930,1.587,0.122
-0.868,-0.348,-0.328,-3.723,1.709,-1.038
-0.868,-0.339,-0.334,-4.333,2.075,-1.709
-0.867,-0.334,-0.339,-4.639,2.991,-1.892
-0.867,-0.326,-0.345,-4.578,4.517,-1.343
-0.870,-0.323,-0.347,-4.883,6.714,-0.488
-0.869,-0.327,-0.346,-5.554,8.850,0.916
-0.865,-0.332,-0.344,-6.287,10.315,2.747
-0.863,-0.337,-0.332,-6.897,11.658,4.272
-0.862,-0.345,-0.310,-6.592,12.634,5.493
-0.863,-0.356,-0.283,-5.066,12.451,5.920
-0.863,-0.364,-0.259,-3.418,10.193,5.249
-0.866,-0.379,-0.242,-1.709,5.981,3.479

0.034,0.348,2.736,1.831,-68.909,-5.676
0.000,0.395,2.846,27.466,-120.911,1.221
0.023,0.439,2.797,64.880,-169.067,16.846
0.080,0.484,2.680,104.492,-202.759,37.415
0.075,0.506,2.511,136.902,-219.116,56.702
0.061,0.456,2.342,155.273,-226.624,69.153
0.047,0.426,2.203,154.724,-233.826,75.378
0.051,0.398,2.114,140.991,-241.333,77.881
0.053,0.398,2.063,122.192,-247.253,78.918
0.077,0.396,2.047,106.079,-250.793,80.566
0.122,0.387,2.072,96.008,-253.540,84.106
0.150,0.352,2.100,92.957,-258.362,87.463
0.152,0.336,2.058,93.994,-268.555,90.454
0.181,0.285,1.992,96.924,-281.128,95.398
0.198,0.236,1.898,102.844,-294.922,101.196
0.188,0.188,1.725,111.694,-308.655,106.628
0.221,0.185,1.510,125.061,-320.618,112.427
0.283,0.150,1.291,138.000,-329.346,117.676
0.344,0.109,1.085,146.301,-332.947,120.789
0.415,0.071,0.955,148.499,-334.473,119.812
0.438,0.023,0.784,143.677,-338.074,112.854
0.480,-0.058,0.632,136.841,-346.558,102.417
0.522,-0.108,0.509,131.104,-357.117,92.590
0.562,-0.138,0.314,131.287,-368.530,84.106
0.599,-0.159,0.098,140.991,-378.235,77.759
0.651,-0.163,-0.132,156.189,-384.705,73.242
0.697,-0.151,-0.399,171.509,-388.489,69.397
0.746,-0.153,-0.661,184.631,-387.878,64.026
0.755,-0.172,-0.873,192.261,-377.686,56.274
0.693,-0.181,-1.113,190.674,-355.896,43.640
0.606,-0.179,-1.315,181.030,-327.576,25.269
0.533,-0.201,-1.406,164.368,-296.082,5.127
0.440,-0.157,-1.490,140.686,-261.536,-13.489
0.344,-0.112,-1.560,115.356,-229.004,-31.616
0.276,-0.070,-1.567,90.942,-198.669,-44.434
0.170,-0.043,-1.552,66.528,-169.189,-51.025
0.060,-0.048,-1.503,48.950,-140.869,-53.406
-0.068,-0.027,-1.433,38.330,-114.014,-51.514
-0.193,-0.015,-1.323,29.053,-89.722,-48.096
-0.329,-0.010,-1.207,18.738,-68.848,-43.579
-0.448,-0.020,-1.095,9.277,-49.622,-38.269
-0.548,-0.079,-0.976,1.648,-31.433,-33.813
-0.658,-0.163,-0.757,-5.127,-15.930,-31.982
-0.803,-0.197,-0.478,-12.024,-12.390,-35.461
-0.910,-0.210,-0.279,-18.127,-22.888,-41.748
-0.991,-0.237,-0.227,-21.545,-42.053,-46.021
-1.042,-0.276,-0.301,-19.897,-59.692,-44.006
-1.058,-0.301,-0.448,-11.658,-64.331,-33.936
-1.055,-0.310,-0.591,1.526,-52.429,-16.479
-1.026,-0.314,-0.691,14.465,-28.198,3.296
-0.976,-0.335,-0.727,20.508,0.671,20.935
-0.937,-0.329,-0.728,16.052,26.855,31.799
-0.872,-0.347,-0.683,2.319,45.349,34.058
-0.817,-0.373,-0.576,-16.235,54.688,30.151
-0.783,-0.424,-0.417,-31.799,54.810,22.217
-0.778,-0.465,-0.256,-37.415,46.204,12.085
-0.787,-0.495,-0.132,-32.166,32.959,2.869
-0.822,-0.520,-0.068,-22.339,20.569,-3.784
-0.858,-0.545,-0.054,-14.709,13.123,-7.629
-0.894,-0.546,-0.061,-8.362,11.902,-8.789
-0.918,-0.519,-0.066,-4.089,15.076,-7.935
-0.928,-0.481,-0.076,-3.296,19.409,-6.714
-0.932,-0.445,-0.089,-4.456,22.278,-5.127
-0.932,-0.413,-0.087,-5.859,23.254,-3.601
-0.926,-0.379,-0.095,-4.395,22.095,-2.930
-0.928,-0.349,-0.126,0.793,18.005,-2.625
-0.930,-0.328,-0.174,5.920,10.620,-2.502
-0.932,-0.312,-0.228,7.690,2.136,-2.441
-0.930,-0.309,-0.276,6.531,-4.761,-2.502
-0.933,-0.317,-0.316,3.540,-9.094,-2.441
-0.924,-0.328,-0.351,0.916,-10.315,-2.014
-0.908,-0.339,-0.378,0.183,-8.911,-0.427
-0.891,-0.356,-0.398,-0.366,-5.493,1.770
-0.871,-0.375,-0.398,-1.221,-1.587,3.723
-0.856,-0.391,-0.387,-2.197,2.197,4.883
-0.850,-0.407,-0.367,-3.662,5.371,4.333
-0.849,-0.422,-0.338,-5.981,6.836,2.014
-0.855,-0.432,-0.299,-9.094,6.409,-1.099
-0.864,-0.439,-0.261,-11.963,5.005,-3.601
-0.873,-0.443,-0.239,-13.184,3.723,-5.493
-0.874,-0.434,-0.231,-12.207,2.808,-5.920
-0.870,-0.422,-0.242,-9.399,2.136,-5.249
-0.862,-0.407,-0.264,-6.165,2.197,-3.967
-0.855,-0.397,-0.294,-3.296,2.747,-2.258
-0.846,-0.385,-0.321,-1.160,4.150,-0.610
-0.840,-0.366,-0.341,-0.366,6.653,0.916
-0.833,-0.351,-0.352,-0.183,9.094,1.831
-0.821,-0.341,-0.351,-0.488,10.132,2.075
-0.826,-0.344,-0.344,-1.953,8.972,1.892
-0.831,-0.368,-0.309,-2.686,6.165,1.770
-0.836,-0.388,-0.267,-2.319,2.380,0.793
-0.847,-0.420,-0.242,-1.404,-0.122,-1.099
-0.856,-0.434,-0.225,0.488,-0.977,-2.686
-0.865,-0.437,-0.211,2.991,-0.366,-3.174
-0.870,-0.434,-0.201,5.981,0.183,-3.235
-0.874,-0.428,-0.206,8.789,-0.244,-2.869
-0.874,-0.423,-0.220,11.108,-1.282,-2.258
-0.875,-0.422,-0.246,11.963,-2.258,-1.526
-0.877,-0.425,-0.274,11.963,-2.625,-1.526
-0.874,-0.422,-0.297,10.620,-2.319,-1.709
-0.874,-0.420,-0.311,8.362,-1.099,-2.136
-0.875,-0.416,-0.314,6.653,0.977,-2.075
-0.876,-0.405,-0.307,5.737,3.418,-1.831
-0.879,-0.392,-0.290,5.554,5.127,-1.770
-0.883,-0.380,-0.279,5.493,5.676,-2.197
-0.888,-0.370,-0.273,5.249,4.578,-2.930
-0.894,-0.360,-0.275,4.272,2.686,-3.845
-0.901,-0.350,-0.282,3.784,0.977,-4.150
-0.902,-0.338,-0.293,2.869,-0.122,-3.845
-0.903,-0.329,-0.302,1.343,-0.732,-3.113
-0.899,-0.326,-0.309,0.000,-0.916,-2.258
-0.892,-0.326,-0.310,-1.038,-1.160,-1.160
-0.883,-0.328,-0.310,-1.892,-0.916,-0.366
-0.881,-0.333,-0.307,-2.197,-0.122,0.244
-0.880,-0.341,-0.302,-2.563,0.793,0.610
-0.881,-0.354,-0.295,-3.601,2.075,0.488
-0.881,-0.368,-0.285,-4.883,3.113,0.610
-0.875,-0.378,-0.276,-5.188,3.479,1.160
-0.866,-0.385,-0.273,-5.310,3.723,1.709

0.187,0.447,2.411,-3.784,-50.781,-0.122
0.171,0.452,2.607,5.310,-85.266,7.507
0.168,0.486,2.774,23.743,-125.427,18.127
0.213,0.507,2.847,50.720,-165.955,32.715
0.296,0.525,2.901,78.552,-200.806,49.316
0.322,0.499,2.902,103.394,-226.257,64.453
0.311,0.502,2.880,124.634,-247.253,77.087
0.321,0.513,2.836,141.113,-269.714,88.501
0.342,0.509,2.767,149.780,-293.579,97.534
0.347,0.498,2.650,150.818,-318.787,104.248
0.391,0.448,2.532,145.630,-345.032,108.276
0.411,0.399,2.385,139.893,-371.155,108.093
0.429,0.346,2.180,140.259,-396.240,104.248
0.513,0.260,1.995,144.226,-413.818,102.417
0.535,0.174,1.807,144.104,-417.603,103.882
0.513,0.127,1.570,144.104,-411.011,104.980
0.486,0.087,1.301,152.466,-399.353,104.065
0.481,0.074,1.055,163.330,-389.038,100.586
0.505,0.073,0.867,166.870,-383.728,95.093
0.511,0.044,0.623,158.203,-384.888,85.022
0.546,-0.012,0.359,145.874,-392.517,73.608
0.631,-0.052,0.139,138.000,-400.940,65.125
0.712,-0.060,-0.063,135.132,-403.992,59.143
0.830,-0.065,-0.184,137.451,-399.414,54.688
0.817,-0.052,-0.279,140.137,-384.949,48.462
0.713,-0.073,-0.448,143.066,-369.019,36.621
0.656,-0.098,-0.638,145.264,-357.117,25.452
0.644,-0.095,-0.814,143.127,-347.717,18.433
0.646,-0.085,-0.969,135.498,-337.097,14.038
0.640,-0.075,-1.091,126.587,-323.730,10.742
0.581,-0.065,-1.189,120.117,-308.167,5.981
0.504,-0.051,-1.305,116.272,-291.504,-1.953
0.470,-0.018,-1.386,113.525,-275.513,-9.766
0.413,0.023,-1.443,106.628,-256.531,-15.991
0.302,0.009,-1.489,96.741,-232.910,-20.569
0.159,-0.021,-1.488,84.473,-204.529,-24.231
0.006,-0.108,-1.410,67.566,-171.570,-27.466
-0.155,-0.177,-1.260,46.448,-137.878,-29.358
-0.267,-0.237,-1.106,30.334,-105.286,-28.931
-0.360,-0.248,-1.003,20.264,-74.158,-27.283
-0.441,-0.234,-0.958,17.029,-51.941,-25.452
-0.536,-0.189,-0.917,12.329,-47.485,-23.010
-0.601,-0.130,-0.925,2.625,-50.171,-19.836
-0.658,-0.090,-1.014,-4.150,-45.837,-14.832
-0.736,-0.049,-1.139,-3.845,-29.358,-7.568
-0.809,-0.020,-1.198,-2.075,-2.380,0.854
-0.883,-0.011,-1.162,-7.996,27.527,8.972
-0.922,-0.031,-1.065,-26.733,54.993,14.343
-0.948,-0.129,-0.875,-52.002,76.782,15.442
-0.951,-0.240,-0.585,-74.768,89.294,11.230
-0.970,-0.318,-0.267,-82.642,90.393,4.578
-0.961,-0.405,-0.013,-73.059,78.735,-2.563
-1.013,-0.464,0.121,-58.411,59.937,-8.057
-1.017,-0.563,0.172,-40.955,39.429,-8.850
-1.025,-0.635,0.172,-25.574,21.484,-5.554
-1.001,-0.659,0.135,-15.625,10.620,0.061
-0.968,-0.672,0.091,-7.446,6.836,6.104
-0.926,-0.670,0.029,-0.732,6.897,11.108
-0.880,-0.645,-0.035,3.845,8.423,13.916
-0.850,-0.598,-0.073,7.141,10.315,13.916
-0.829,-0.549,-0.114,9.155,10.132,10.193
-0.817,-0.499,-0.153,9.705,6.592,3.601
-0.822,-0.451,-0.201,9.644,1.343,-2.319
-0.833,-0.408,-0.243,10.559,-2.686,-6.287
-0.851,-0.373,-0.282,10.864,-4.883,-9.155
-0.867,-0.338,-0.314,10.742,-5.188,-10.254
-0.884,-0.313,-0.340,9.521,-4.395,-10.071
-0.897,-0.295,-0.363,7.507,-2.319,-9.399
-0.909,-0.282,-0.375,5.798,0.305,-7.812
-0.920,-0.275,-0.381,3.296,3.113,-6.104
-0.922,-0.275,-0.376,0.183,4.761,-4.333
-0.924,-0.288,-0.365,-2.747,5.432,-2.625
-0.923,-0.305,-0.356,-4.578,5.676,-1.099
-0.918,-0.326,-0.346,-5.615,5.554,0.000
-0.912,-0.349,-0.343,-6.287,4.456,1.038
-0.908,-0.375,-0.337,-6.470,3.540,2.258
-0.903,-0.397,-0.338,-6.470,3.967,3.296
-0.893,-0.413,-0.336,-7.019,5.432,3.967
-0.881,-0.423,-0.334,-7.812,7.019,4.028
-0.864,-0.425,-0.334,-9.094,8.484,3.845
-0.847,-0.429,-0.335,-9.399,9.583,3.723
-0.834,-0.431,-0.342,-8.240,10.742,4.211
-0.827,-0.427,-0.351,-6.897,13.000,5.188
-0.817,-0.415,-0.357,-5.737,15.625,6.409
-0.809,-0.404,-0.352,-5.371,17.883,7.324
-0.802,-0.402,-0.327,-5.676,18.372,7.019
-0.803,-0.406,-0.292,-5.066,16.357,6.042
-0.811,-0.421,-0.250,-3.418,12.512,4.089
-0.825,-0.435,-0.220,-1.099,7.996,0.916
-0.838,-0.446,-0.207,0.977,4.761,-2.747
-0.854,-0.440,-0.208,2.502,2.319,-5.188
-0.860,-0.428,-0.218,3.784,1.282,-6.042
-0.860,-0.421,-0.230,5.493,0.732,-5.432
-0.862,-0.413,-0.247,7.507,0.977,-4.272
-0.860,-0.402,-0.269,9.888,1.892,-2.747
-0.859,-0.391,-0.292,11.353,2.686,-1.648
-0.860,-0.396,-0.312,11.108,3.723,-0.732
-0.858,-0.393,-0.315,8.728,4.944,-0.488
-0.858,-0.393,-0.313,6.042,6.592,-0.366
-0.859,-0.396,-0.303,3.662,7.690,-0.916
-0.861,-0.400,-0.288,2.136,8.179,-1.953
-0.866,-0.401,-0.279,1.343,8.118,-2.869
-0.871,-0.400,-0.278,1.465,7.507,-3.662
-0.877,-0.394,-0.275,1.221,6.592,-4.211
-0.881,-0.392,-0.273,1.160,5.310,-4.028
-0.884,-0.390,-0.273,0.916,4.272,-4.150
-0.887,-0.382,-0.275,0.916,3.906,-4.272
-0.893,-0.380,-0.274,0.732,3.784,-4.089
-0.899,-0.376,-0.270,-0.183,3.845,-4.150
-0.900,-0.364,-0.263,-1.282,3.845,-4.578
-0.902,-0.359,-0.262,-1.892,3.296,-4.578
-0.901,-0.349,-0.261,-2.686,2.258,-4.456
-0.900,-0.345,-0.262,-2.747,1.404,-4.089
-0.898,-0.341,-0.269,-2.380,0.610,-3.662
-0.895,-0.339,-0.281,-2.075,0.122,-3.174
-0.894,-0.341,-0.292,-2.441,0.427,-2.869
-0.888,-0.341,-0.296,-3.418,0.977,-2.197
-0.883,-0.345,-0.293,-4.822,1.953,-1.404
-0.880,-0.352,-0.284,-6.226,2.991,-0.366

0.193,0.308,2.275,-7.874,-46.692,-7.324
0.148,0.368,2.426,2.808,-76.721,-8.484
0.114,0.430,2.524,22.827,-107.910,-2.563
0.090,0.488,2.518,49.011,-135.925,11.902
0.117,0.518,2.472,73.914,-161.438,29.541
0.180,0.516,2.424,89.600,-185.059,45.288
0.235,0.476,2.370,93.628,-206.909,56.519
0.289,0.400,2.329,90.332,-226.196,62.195
0.358,0.345,2.347,85.144,-242.859,64.758
0.395,0.327,2.379,81.543,-255.798,66.711
0.419,0.305,2.389,83.984,-267.151,68.542
0.418,0.283,2.383,93.079,-278.748,71.472
0.365,0.282,2.265,104.614,-293.091,75.684
0.350,0.253,2.074,117.737,-309.814,79.834
0.357,0.263,1.859,130.798,-326.233,85.815
0.376,0.251,1.623,141.479,-338.196,91.736
0.385,0.225,1.405,145.935,-345.337,94.055
0.451,0.191,1.291,142.395,-350.403,92.773
0.459,0.139,1.221,130.310,-355.347,85.205
0.402,0.066,1.077,115.051,-366.089,71.350
0.399,-0.024,0.895,108.887,-380.493,61.157
0.465,-0.056,0.748,110.535,-391.846,60.791
0.482,-0.071,0.570,115.906,-394.897,65.674
0.531,-0.116,0.382,129.517,-393.738,70.251
0.612,-0.112,0.233,143.738,-390.930,72.876
0.626,-0.123,0.049,153.259,-388.916,69.031
0.665,-0.135,-0.208,165.222,-391.602,60.486
0.732,-0.173,-0.528,178.833,-398.132,51.819
0.815,-0.147,-0.858,190.613,-402.954,44.617
0.855,-0.052,-1.227,202.576,-399.658,38.452
0.856,0.078,-1.605,214.355,-385.864,32.288
0.806,0.144,-1.944,216.675,-362.122,26.123
0.705,0.206,-2.251,204.102,-326.172,21.423
0.566,0.223,-2.495,178.467,-279.297,15.747
0.417,0.233,-2.648,139.954,-222.595,9.338
0.262,0.227,-2.632,91.431,-157.043,2.258
0.100,0.197,-2.442,39.124,-87.585,-5.127
-0.067,0.104,-2.089,-8.545,-20.996,-13.855
-0.233,0.057,-1.638,-51.514,33.813,-23.926
-0.367,0.051,-1.126,-83.618,70.557,-34.302
-0.528,-0.002,-0.700,-95.398,86.426,-48.645
-0.783,-0.035,-0.299,-102.051,76.904,-65.552
-0.946,-0.076,-0.020,-103.882,49.438,-74.280
-1.066,-0.163,0.116,-99.976,21.118,-72.754
-1.194,-0.236,0.171,-91.003,1.831,-59.692
-1.256,-0.326,0.148,-72.693,-3.174,-39.063
-1.279,-0.390,0.104,-47.791,2.502,-16.418
-1.279,-0.412,0.053,-26.550,14.282,3.784
-1.247,-0.443,0.007,-14.526,23.865,17.883
-1.171,-0.468,-0.033,-14.099,25.635,24.170
-1.069,-0.493,-0.065,-20.264,21.423,25.024
-0.977,-0.501,-0.082,-24.536,16.113,21.423
-0.898,-0.487,-0.095,-22.095,12.451,15.564
-0.844,-0.457,-0.116,-15.625,10.986,9.888
-0.813,-0.435,-0.136,-9.399,9.216,5.432
-0.791,-0.423,-0.131,-5.981,5.615,1.770
-0.783,-0.442,-0.098,-4.028,0.671,-1.343
-0.789,-0.440,-0.060,-2.686,-1.953,-5.432
-0.810,-0.469,-0.025,-0.854,-1.587,-10.315
-0.823,-0.452,0.001,-0.916,-0.610,-15.625
-0.842,-0.435,-0.000,-0.122,1.526,-18.188
-0.856,-0.411,-0.013,2.197,3.906,-18.921
-0.884,-0.385,-0.041,5.981,6.409,-16.541
-0.912,-0.362,-0.068,8.789,9.155,-13.062
-0.940,-0.341,-0.086,10.071,10.437,-9.583
-0.957,-0.328,-0.105,9.827,10.681,-6.958
-0.970,-0.318,-0.124,8.972,10.071,-5.127
-0.976,-0.311,-0.145,8.362,8.850,-4.333
-0.979,-0.299,-0.169,8.484,6.653,-3.479
-0.990,-0.294,-0.184,7.812,3.662,-2.930
-1.004,-0.290,-0.200,6.042,1.160,-2.930
-1.006,-0.290,-0.204,2.869,-1.221,-3.479
-1.006,-0.294,-0.206,-0.427,-2.869,-3.418
-0.996,-0.301,-0.201,-2.502,-3.540,-2.991
-0.987,-0.311,-0.190,-2.197,-2.930,-1.831
-0.980,-0.317,-0.179,-1.770,-2.014,-0.732
-0.971,-0.325,-0.169,-2.319,-1.770,-0.122
-0.962,-0.331,-0.159,-3.784,-2.319,0.366
-0.952,-0.352,-0.153,-5.371,-3.052,1.160
-0.937,-0.377,-0.145,-7.202,-3.357,1.831
-0.918,-0.403,-0.136,-8.118,-3.357,2.930
-0.897,-0.421,-0.131,-8.362,-3.052,3.540
-0.876,-0.430,-0.128,-7.324,-2.380,3.906
-0.863,-0.431,-0.126,-5.249,-1.282,3.540
-0.856,-0.422,-0.129,-2.625,0.183,2.380
-0.853,-0.402,-0.143,-1.160,1.282,0.671
-0.852,-0.380,-0.163,-0.366,2.319,-0.793
-0.851,-0.357,-0.182,-0.488,3.052,-1.648
-0.847,-0.343,-0.203,-1.343,4.211,-1.953
-0.849,-0.330,-0.224,-1.465,6.226,-1.465
-0.855,-0.318,-0.245,-0.793,9.827,-0.549
-0.860,-0.301,-0.256,-0.671,14.160,0.488
-0.873,-0.288,-0.253,-1.099,18.005,1.465
-0.886,-0.281,-0.233,-3.418,19.958,1.587
-0.897,-0.283,-0.192,-6.226,18.433,0.916
-0.914,-0.300,-0.131,-7.690,13.611,-0.488
-0.930,-0.326,-0.086,-6.836,8.240,-2.197
-0.949,-0.347,-0.064,-3.967,3.967,-3.784
-0.967,-0.360,-0.058,0.427,1.404,-3.662
-0.981,-0.368,-0.061,4.456,0.427,-2.625
-0.989,-0.380,-0.069,7.385,0.366,-0.854
-0.983,-0.389,-0.077,8.057,0.183,1.404
-0.967,-0.396,-0.088,7.202,-0.854,2.991
-0.943,-0.395,-0.102,6.226,-1.770,3.174
-0.927,-0.386,-0.121,6.714,-2.441,2.747
-0.915,-0.372,-0.144,7.324,-3.479,1.526
-0.908,-0.361,-0.166,7.446,-3.906,0.488
-0.904,-0.351,-0.180,7.263,-3.723,-0.122
-0.901,-0.341,-0.190,6.836,-2.625,-1.038
-0.902,-0.334,-0.196,5.615,-1.282,-1.892
-0.899,-0.335,-0.198,4.578,0.122,-2.136
-0.899,-0.348,-0.191,3.418,2.258,-1.770
-0.900,-0.348,-0.178,2.014,5.066,-0.854
-0.899,-0.352,-0.166,1.587,7.629,-0.122
-0.901,-0.353,-0.152,0.854,9.766,0.183
-0.897,-0.349,-0.139,-0.427,10.925,-0.061
-0.897,-0.343,-0.123,-0.977,10.864,-0.488
-0.901,-0.341,-0.115,-1.648,9.583,-1.648
-0.906,-0.337,-0.113,-1.709,7.263,-2.380

0.377,0.192,2.134,24.109,-119.202,22.400
0.478,0.133,2.296,21.362,-133.911,23.682
0.526,0.090,2.500,13.733,-150.940,23.865
0.496,0.092,2.623,7.080,-174.133,21.362
0.461,0.125,2.695,14.771,-202.881,20.447
0.418,0.196,2.683,34.973,-234.314,24.719
0.396,0.274,2.589,57.495,-268.616,32.837
0.398,0.330,2.471,71.838,-303.711,41.504
0.393,0.360,2.345,77.759,-336.365,49.316
0.393,0.388,2.208,80.627,-362.732,55.054
0.358,0.391,2.072,85.999,-380.493,59.387
0.321,0.401,1.948,94.055,-390.137,62.439
0.240,0.381,1.819,106.079,-394.836,65.979
0.172,0.377,1.688,119.690,-400.085,70.007
0.128,0.371,1.544,134.338,-408.203,75.195
0.119,0.370,1.341,145.935,-420.044,82.092
0.162,0.349,1.103,154.785,-432.617,90.881
0.236,0.305,0.842,159.363,-440.613,98.877
0.316,0.253,0.558,163.330,-441.589,104.431
0.391,0.185,0.306,164.307,-432.556,104.492
0.473,0.103,0.136,158.691,-418.335,98.816
0.514,0.024,0.059,149.292,-402.161,88.806
0.514,-0.009,-0.036,141.113,-389.587,73.364
0.528,-0.035,-0.163,136.780,-382.385,56.335
0.543,-0.027,-0.302,135.193,-377.747,42.725
0.565,-0.029,-0.479,133.789,-372.925,33.386
0.596,-0.036,-0.688,132.629,-367.798,28.992
0.630,-0.047,-0.919,132.874,-359.497,27.649
0.640,-0.029,-1.149,135.498,-344.238,27.466
0.628,-0.016,-1.368,139.038,-320.984,26.306
0.576,-0.001,-1.554,141.296,-287.964,23.682
0.488,-0.001,-1.685,136.780,-247.070,17.944
0.367,-0.007,-1.735,122.864,-202.271,8.789
0.209,-0.006,-1.739,100.403,-158.020,-2.747
0.089,-0.007,-1.660,70.862,-119.873,-16.235
-0.049,-0.019,-1.514,36.255,-88.928,-28.625
-0.219,-0.037,-1.330,4.028,-63.599,-34.973
-0.374,-0.046,-1.139,-18.860,-40.588,-35.645
-0.504,-0.048,-0.983,-27.588,-18.738,-31.128
-0.628,-0.066,-0.820,-26.123,-2.258,-23.560
-0.753,-0.065,-0.634,-22.949,2.441,-17.517
-0.855,-0.094,-0.515,-22.888,-0.305,-15.076
-0.929,-0.130,-0.490,-23.865,-5.859,-15.076
-0.982,-0.149,-0.514,-26.245,-9.155,-15.320
-1.026,-0.162,-0.556,-27.710,-6.165,-13.062
-1.050,-0.188,-0.588,-28.503,2.991,-7.385
-1.069,-0.216,-0.584,-31.067,16.663,1.465
-1.052,-0.268,-0.525,-33.691,32.043,11.780
-1.011,-0.345,-0.416,-32.898,46.326,21.790
-0.960,-0.408,-0.288,-29.358,54.138,27.832
-0.937,-0.443,-0.172,-23.682,50.110,28.259
-0.903,-0.510,-0.082,-15.015,35.706,24.841
-0.883,-0.557,-0.041,-7.019,17.090,18.005
-0.874,-0.583,-0.035,-2.258,0.549,9.094
-0.875,-0.588,-0.061,1.770,-10.193,0.793
-0.885,-0.579,-0.089,7.019,-13.550,-4.395
-0.897,-0.548,-0.121,11.230,-10.925,-7.690
-0.895,-0.490,-0.153,13.428,-5.981,-9.521
-0.895,-0.423,-0.188,14.587,-2.197,-9.521
-0.894,-0.356,-0.217,13.855,0.244,-8.728
-0.900,-0.302,-0.238,13.367,1.648,-7.324
-0.906,-0.258,-0.260,13.062,1.648,-6.104
-0.912,-0.231,-0.279,12.817,0.000,-4.883
-0.922,-0.220,-0.301,11.230,-2.502,-3.662
-0.927,-0.224,-0.322,8.728,-5.676,-2.869
-0.932,-0.232,-0.346,5.798,-8.850,-2.014
-0.937,-0.244,-0.369,4.333,-10.193,0.122
-0.943,-0.268,-0.386,3.113,-8.972,1.953
-0.944,-0.290,-0.392,1.953,-5.432,4.089
-0.940,-0.302,-0.386,0.305,-1.831,6.226
-0.932,-0.324,-0.369,-0.854,0.671,8.057
-0.915,-0.341,-0.350,-2.930,1.160,8.911
-0.892,-0.362,-0.339,-4.700,-0.671,9.155
-0.870,-0.384,-0.334,-6.958,-2.991,8.362
-0.856,-0.397,-0.324,-7.629,-4.272,7.202
-0.852,-0.400,-0.315,-6.531,-3.540,5.798
-0.846,-0.392,-0.313,-4.822,-2.441,4.456
-0.840,-0.377,-0.323,-4.150,-1.648,3.662
-0.831,-0.366,-0.344,-3.479,-0.854,4.211
-0.824,-0.353,-0.367,-2.625,1.221,5.188
-0.819,-0.340,-0.383,-2.014,4.761,6.470
-0.820,-0.325,-0.390,-2.014,9.766,7.263
-0.822,-0.309,-0.397,-2.563,14.648,7.202
-0.820,-0.295,-0.395,-4.639,17.700,6.531
-0.826,-0.283,-0.381,-6.165,18.982,6.226
-0.837,-0.289,-0.347,-6.714,17.944,5.188
-0.853,-0.307,-0.299,-5.798,14.221,3.601
-0.874,-0.334,-0.253,-3.601,8.850,1.038
-0.900,-0.362,-0.226,-0.793,4.395,-1.770
-0.926,-0.374,-0.214,1.831,2.197,-3.906
-0.949,-0.381,-0.210,5.188,1.709,-4.150
-0.958,-0.383,-0.210,7.324,2.197,-3.418
-0.954,-0.378,-0.215,8.362,2.380,-2.075
-0.942,-0.370,-0.229,9.094,1.587,-0.610
-0.925,-0.366,-0.252,10.193,-0.122,0.549
-0.910,-0.356,-0.287,10.559,-1.282,0.977
-0.898,-0.350,-0.319,11.108,-1.587,1.221
-0.884,-0.341,-0.340,10.742,-0.488,0.793
-0.876,-0.334,-0.350,9.705,0.671,0.061
-0.870,-0.327,-0.352,8.423,1.709,-0.488
-0.864,-0.323,-0.351,6.958,1.831,-1.221
-0.867,-0.317,-0.350,5.249,1.465,-2.136
-0.874,-0.312,-0.342,3.601,0.671,-2.869
-0.883,-0.307,-0.332,0.610,0.122,-4.150
-0.893,-0.302,-0.322,-1.221,0.244,-4.883
-0.899,-0.301,-0.310,-2.380,1.099,-4.822
-0.901,-0.298,-0.303,-2.747,2.197,-3.967
-0.899,-0.304,-0.297,-2.991,2.686,-2.563
-0.893,-0.315,-0.292,-2.258,2.441,-0.793
-0.886,-0.326,-0.290,-1.465,2.197,1.038
-0.884,-0.335,-0.289,-0.549,2.563,2.075
-0.882,-0.341,-0.287,0.244,3.296,2.136
-0.880,-0.338,-0.291,0.183,3.845,1.648
-0.878,-0.334,-0.298,-1.099,4.272,0.671
-0.881,-0.328,-0.301,-1.892,5.127,0.366
-0.885,-0.318,-0.305,-2.197,6.714,0.244
-0.886,-0.314,-0.308,-2.075,8.179,0.122
-0.890,-0.312,-0.313,-2.686,8.789,0.366
-0.890,-0.318,-0.310,-3.784,9.216,1.038

0.388,0.183,2.313,-8.911,-69.153,-9.888
0.357,0.143,2.493,1.709,-107.300,-7.629
0.326,0.175,2.579,25.146,-148.682,-2.563
0.327,0.199,2.539,58.899,-187.378,5.432
0.343,0.272,2.492,89.355,-217.590,15.625
0.332,0.366,2.402,112.427,-238.586,27.710
0.307,0.432,2.321,120.239,-255.615,37.598
0.282,0.465,2.242,116.760,-274.902,46.021
0.292,0.444,2.180,107.544,-295.288,54.565
0.375,0.377,2.195,97.412,-313.416,62.866
0.436,0.294,2.254,90.515,-327.209,67.871
0.413,0.269,2.246,87.769,-339.600,69.458
0.355,0.218,2.175,93.201,-352.966,68.665
0.300,0.203,2.031,108.398,-369.202,68.787
0.273,0.205,1.856,126.587,-383.118,72.876
0.244,0.199,1.662,141.968,-390.381,80.078
0.199,0.195,1.431,151.306,-392.090,87.402
0.177,0.165,1.202,156.982,-391.479,92.224
0.170,0.083,1.018,159.180,-389.954,91.919
0.178,0.006,0.864,158.752,-390.198,87.769
0.201,-0.045,0.726,153.625,-391.235,82.153
0.230,-0.093,0.557,148.499,-390.930,76.355
0.247,-0.123,0.342,145.813,-387.207,70.618
0.272,-0.131,0.126,148.743,-380.493,65.674
0.319,-0.093,-0.040,152.344,-372.864,59.631
0.326,-0.082,-0.215,150.757,-364.014,50.476
0.339,-0.096,-0.391,142.883,-356.140,40.466
0.374,-0.116,-0.502,129.761,-348.816,32.043
0.369,-0.133,-0.613,114.685,-339.294,24.048
0.378,-0.154,-0.731,105.957,-327.820,17.273
0.382,-0.180,-0.842,103.271,-313.721,13.306
0.370,-0.178,-0.952,102.722,-296.692,11.536
0.365,-0.185,-1.070,104.004,-278.320,11.108
0.350,-0.212,-1.177,102.966,-256.897,10.437
0.329,-0.216,-1.281,99.365,-233.765,7.446
0.331,-0.209,-1.348,96.558,-210.510,2.686
0.283,-0.212,-1.417,90.759,-185.547,-4.272
0.199,-0.213,-1.467,82.275,-158.264,-13.428
0.073,-0.214,-1.478,69.824,-128.296,-24.048
-0.063,-0.216,-1.398,49.194,-96.924,-33.997
-0.222,-0.226,-1.216,23.193,-63.782,-41.321
-0.389,-0.265,-0.980,3.967,-28.015,-45.532
-0.542,-0.290,-0.745,-5.615,5.066,-49.622
-0.670,-0.232,-0.515,-11.475,27.100,-51.819
-0.780,-0.170,-0.341,-15.015,30.151,-52.124
-0.853,-0.099,-0.258,-18.555,13.916,-50.049
-0.914,-0.074,-0.296,-17.151,-10.254,-43.579
-0.944,-0.082,-0.413,-8.179,-30.334,-32.776
-0.977,-0.100,-0.530,0.366,-37.659,-20.447
-0.991,-0.145,-0.594,6.104,-32.654,-10.010
-0.989,-0.175,-0.645,5.859,-21.240,-1.221
-0.950,-0.241,-0.642,1.099,-8.179,5.676
-0.906,-0.291,-0.628,-5.005,4.456,11.780
-0.861,-0.338,-0.581,-8.911,17.273,18.616
-0.813,-0.386,-0.511,-10.315,28.503,23.743
-0.770,-0.426,-0.415,-8.179,35.522,24.963
-0.764,-0.460,-0.310,-3.784,35.645,20.935
-0.769,-0.478,-0.211,-1.160,28.503,11.597
-0.798,-0.493,-0.156,-3.296,16.357,-0.366
-0.846,-0.509,-0.132,-6.348,4.089,-10.010
-0.893,-0.511,-0.127,-7.324,-3.540,-15.991
-0.928,-0.488,-0.139,-5.005,-5.615,-17.090
-0.956,-0.457,-0.160,-0.671,-4.578,-14.893
-0.969,-0.415,-0.198,3.784,-1.770,-10.132
-0.967,-0.363,-0.241,7.080,0.366,-4.944
-0.960,-0.331,-0.284,9.644,0.793,-0.122
-0.952,-0.316,-0.314,9.338,0.244,4.028
-0.939,-0.309,-0.339,6.897,-0.916,6.470
-0.920,-0.311,-0.359,4.639,-2.563,6.348
-0.902,-0.311,-0.374,2.441,-4.578,5.249
-0.895,-0.320,-0.376,0.732,-5.127,4.089
-0.892,-0.329,-0.373,0.366,-4.578,3.845
-0.881,-0.338,-0.370,0.366,-3.906,3.662
-0.871,-0.349,-0.383,-0.244,-3.723,3.113
-0.859,-0.354,-0.399,-1.709,-2.869,2.808
-0.855,-0.359,-0.411,-3.296,-0.732,2.625
-0.854,-0.362,-0.413,-5.615,3.113,2.197
-0.850,-0.360,-0.401,-7.446,7.629,2.747
-0.850,-0.361,-0.384,-8.850,12.329,3.113
-0.842,-0.361,-0.368,-10.071,15.564,3.479
-0.841,-0.364,-0.353,-11.047,17.090,4.028
-0.844,-0.370,-0.331,-11.780,18.188,4.456
-0.851,-0.371,-0.315,-12.329,19.104,4.456
-0.851,-0.372,-0.306,-12.207,19.165,5.127
-0.840,-0.375,-0.300,-12.268,17.883,5.798
-0.830,-0.386,-0.294,-10.803,16.174,7.019
-0.819,-0.400,-0.280,-7.263,13.916,7.935
-0.816,-0.424,-0.267,-2.380,10.986,7.629
-0.821,-0.444,-0.259,1.770,7.141,5.859
-0.827,-0.450,-0.257,4.700,2.808,3.235
-0.836,-0.451,-0.270,6.042,-0.549,-0.671
-0.845,-0.443,-0.289,6.287,-2.563,-3.784
-0.855,-0.432,-0.307,6.470,-3.174,-5.493
-0.868,-0.417,-0.322,6.836,-2.258,-6.470
-0.878,-0.396,-0.333,7.446,-0.122,-6.958
-0.880,-0.375,-0.341,7.507,1.587,-6.042
-0.881,-0.361,-0.348,6.226,2.747,-5.005
-0.882,-0.353,-0.344,4.883,3.845,-4.150
-0.881,-0.346,-0.340,4.028,4.700,-3.174
-0.875,-0.344,-0.334,3.784,4.822,-2.625
-0.872,-0.343,-0.329,3.235,3.845,-2.502
-0.870,-0.342,-0.327,2.747,2.075,-2.197
-0.868,-0.342,-0.330,1.282,0.671,-2.136
-0.866,-0.348,-0.331,-0.427,-0.305,-2.197
-0.867,-0.357,-0.333,-1.953,-0.427,-1.892
-0.866,-0.367,-0.328,-3.052,0.671,-1.282
-0.863,-0.375,-0.321,-3.784,2.502,-0.244
-0.859,-0.381,-0.312,-3.906,3.540,0.977
-0.857,-0.385,-0.306,-4.150,4.211,1.160
-0.858,-0.384,-0.300,-4.456,3.906,0.549
-0.863,-0.383,-0.298,-4.822,3.357,-0.427
-0.869,-0.381,-0.300,-5.127,2.625,-1.343
-0.875,-0.375,-0.304,-5.188,2.808,-1.648
-0.875,-0.369,-0.303,-5.005,3.052,-1.038
-0.871,-0.365,-0.307,-5.371,2.991,-0.427
-0.863,-0.361,-0.317,-5.615,2.991,0.488
-0.857,-0.363,-0.328,-5.310,3.540,1.465
-0.854,-0.361,-0.335,-4.822,4.944,2.441
-0.854,-0.358,-0.339,-4.578,7.080,2.991

0.407,0.344,2.060,39.368,-85.693,17.029
0.454,0.331,2.152,45.654,-103.210,20.020
0.497,0.315,2.210,50.354,-120.667,22.583
0.505,0.299,2.281,52.795,-138.000,25.696
0.504,0.280,2.328,55.115,-157.776,27.954
0.556,0.261,2.399,57.373,-179.810,29.358
0.613,0.255,2.464,61.707,-202.148,31.738
0.670,0.253,2.513,69.153,-222.839,35.706
0.766,0.246,2.573,78.125,-244.263,39.307
0.839,0.246,2.630,87.158,-268.433,40.527
0.841,0.250,2.605,93.323,-296.753,39.246
0.881,0.273,2.561,101.013,-328.918,36.621
0.878,0.291,2.487,110.657,-358.643,35.828
0.802,0.323,2.303,120.361,-384.094,38.391
0.761,0.348,2.060,131.958,-405.151,44.434
0.715,0.346,1.752,145.935,-420.288,53.894
0.689,0.284,1.436,159.668,-429.626,62.439
0.711,0.242,1.214,171.753,-431.396,68.542
0.640,0.215,0.956,174.927,-432.312,67.505
0.599,0.104,0.682,170.105,-437.927,59.448
0.608,0.043,0.454,162.598,-445.618,54.138
0.652,-0.021,0.288,153.870,-450.500,52.246
0.683,-0.068,0.122,141.846,-452.454,48.645
0.685,-0.100,-0.072,132.568,-452.332,43.457
0.732,-0.139,-0.258,131.775,-452.332,37.537
0.774,-0.157,-0.425,136.108,-450.256,31.982
0.806,-0.134,-0.604,145.020,-445.984,26.550
0.825,-0.098,-0.811,159.546,-439.819,22.156
0.840,-0.045,-1.026,177.063,-429.871,18.005
0.849,0.052,-1.273,196.106,-416.565,13.672
0.836,0.177,-1.563,211.426,-397.827,8.179
0.782,0.285,-1.850,215.088,-370.850,1.709
0.661,0.361,-2.135,201.660,-335.632,-5.920
0.532,0.433,-2.376,171.021,-292.664,-14.404
0.386,0.465,-2.511,124.146,-240.356,-20.935
0.231,0.431,-2.509,68.726,-177.307,-23.804
0.050,0.365,-2.392,15.381,-107.056,-23.376
-0.106,0.318,-2.149,-28.931,-34.668,-20.935
-0.255,0.260,-1.776,-65.125,26.489,-18.005
-0.450,0.116,-1.247,-93.018,57.678,-18.433
-0.611,0.005,-0.764,-120.544,59.570,-25.330
-0.769,-0.091,-0.356,-143.188,48.157,-33.875
-0.929,-0.191,-0.115,-148.132,31.555,-40.710
-1.071,-0.278,-0.020,-132.690,20.020,-38.452
-1.175,-0.405,-0.018,-106.384,20.874,-26.794
-1.250,-0.442,-0.049,-76.294,32.898,-6.287
-1.256,-0.471,-0.066,-49.011,50.049,15.869
-1.211,-0.497,-0.074,-31.616,64.941,34.546
-1.130,-0.522,-0.063,-24.170,73.059,46.204
-1.037,-0.542,-0.025,-20.386,71.899,50.110
-0.952,-0.558,0.025,-17.334,59.998,45.288
-0.911,-0.575,0.082,-14.343,38.391,34.119
-0.893,-0.615,0.113,-12.146,13.733,18.738
-0.876,-0.595,0.110,-9.888,-6.714,3.784
-0.888,-0.595,0.080,-4.211,-20.142,-6.653
-0.884,-0.562,0.049,-0.122,-27.283,-12.939
-0.883,-0.540,-0.000,6.104,-25.269,-13.489
-0.872,-0.504,-0.053,15.015,-16.541,-10.193
-0.854,-0.464,-0.109,23.804,-5.615,-6.104
-0.839,-0.410,-0.149,28.259,3.845,-2.258
-0.844,-0.363,-0.175,27.222,9.705,0.122
-0.852,-0.329,-0.191,21.667,12.634,-0.549
-0.867,-0.305,-0.194,14.709,13.306,-3.540
-0.889,-0.291,-0.194,8.789,11.963,-6.592
-0.916,-0.288,-0.188,4.883,9.888,-9.644
-0.944,-0.286,-0.186,4.028,7.080,-10.925
-0.968,-0.284,-0.198,4.944,3.296,-10.315
-0.976,-0.280,-0.219,5.371,-0.366,-8.179
-0.982,-0.286,-0.248,5.310,-2.502,-4.944
-0.988,-0.302,-0.280,5.920,-3.113,-1.099
-0.971,-0.317,-0.297,5.798,-2.869,2.869
-0.951,-0.334,-0.307,4.089,-2.869,6.226
-0.930,-0.365,-0.301,1.221,-3.174,7.629
-0.914,-0.396,-0.280,-1.404,-3.418,7.324
-0.910,-0.420,-0.259,-3.418,-4.089,5.493
-0.904,-0.435,-0.238,-4.639,-5.127,2.930
-0.899,-0.442,-0.225,-5.859,-6.226,0.000
-0.895,-0.442,-0.221,-6.714,-7.263,-1.831
-0.888,-0.438,-0.226,-6.042,-7.019,-2.319
-0.880,-0.429,-0.237,-4.578,-5.371,-1.831
-0.864,-0.415,-0.255,-3.296,-2.625,-0.671
-0.850,-0.405,-0.271,-2.075,0.366,1.221
-0.838,-0.392,-0.285,-2.136,3.540,2.747
-0.819,-0.378,-0.289,-3.357,6.592,3.662
-0.805,-0.365,-0.286,-4.944,8.789,3.723
-0.793,-0.361,-0.286,-5.920,10.498,3.174
-0.798,-0.350,-0.294,-6.470,11.536,2.380
-0.813,-0.339,-0.306,-6.531,13.245,1.953
-0.832,-0.331,-0.307,-7.629,16.296,1.587
-0.850,-0.330,-0.285,-8.118,19.348,1.953
-0.872,-0.343,-0.240,-7.751,20.508,1.831
-0.898,-0.371,-0.165,-6.958,18.860,0.977
-0.922,-0.398,-0.107,-6.042,15.503,-0.854
-0.942,-0.418,-0.077,-4.089,11.475,-2.380
-0.959,-0.429,-0.066,-1.831,6.958,-3.601
-0.966,-0.428,-0.073,0.427,2.319,-3.784
-0.966,-0.428,-0.092,3.723,-1.953,-2.869
-0.962,-0.429,-0.127,6.714,-5.371,-1.648
-0.952,-0.423,-0.166,9.155,-7.690,-0.122
-0.937,-0.422,-0.204,11.169,-8.362,1.465
-0.914,-0.404,-0.233,11.841,-6.836,2.136
-0.901,-0.402,-0.253,11.902,-4.761,2.014
-0.884,-0.383,-0.270,10.559,-2.869,1.160
-0.872,-0.373,-0.279,7.446,-1.892,-0.305
-0.863,-0.365,-0.285,4.639,-1.038,-1.404
-0.858,-0.362,-0.280,2.747,0.366,-2.075
-0.857,-0.358,-0.271,2.441,2.502,-2.197
-0.861,-0.352,-0.261,2.869,4.883,-2.258
-0.866,-0.349,-0.250,3.113,6.531,-2.319
-0.873,-0.349,-0.238,1.465,6.897,-2.258
-0.880,-0.356,-0.225,-1.038,6.409,-2.075
-0.883,-0.367,-0.210,-2.869,6.348,-1.404
-0.890,-0.381,-0.195,-3.723,6.775,-0.549
-0.893,-0.392,-0.180,-3.479,7.751,0.610
-0.891,-0.400,-0.169,-2.808,8.301,1.465
-0.890,-0.407,-0.160,-2.625,7.996,1.526
-0.891,-0.409,-0.154,-2.197,7.141,0.854
-0.896,-0.404,-0.151,-1.221,6.042,-0.427
-0.905,-0.396,-0.155,-0.427,4.456,-2.014

0.460,0.087,2.021,50.354,-120.422,-1.831
0.430,0.090,2.041,54.443,-139.160,-1.953
0.417,0.111,2.036,61.829,-155.701,0.000
0.398,0.142,2.020,68.420,-169.922,3.967
0.379,0.160,2.001,73.486,-183.167,8.057
0.369,0.166,2.012,76.538,-198.303,10.559
0.368,0.150,2.038,76.477,-217.468,10.498
0.347,0.146,2.030,74.768,-239.258,9.644
0.357,0.133,2.003,75.195,-259.521,12.024
0.417,0.122,2.013,77.515,-275.208,17.456
0.436,0.101,2.012,80.505,-287.415,22.583
0.434,0.068,1.973,85.083,-298.462,24.231
0.426,0.043,1.918,92.468,-309.753,24.353
0.414,0.052,1.809,100.464,-322.083,23.804
0.435,0.065,1.728,107.849,-331.848,25.146
0.440,0.043,1.697,109.131,-338.440,25.574
0.422,-0.017,1.713,105.713,-344.421,20.935
0.322,-0.060,1.647,98.999,-354.553,11.902
0.228,-0.091,1.513,95.703,-369.263,4.761
0.175,-0.071,1.329,100.159,-384.766,4.700
0.174,-0.054,1.081,111.816,-397.095,11.108
0.210,-0.029,0.860,124.268,-402.466,20.020
0.264,0.011,0.652,134.094,-402.100,26.917
0.292,0.019,0.429,139.465,-399.536,27.588
0.387,-0.025,0.316,139.771,-394.409,24.170
0.414,-0.038,0.262,131.042,-388.123,15.991
0.388,-0.045,0.147,121.643,-387.085,2.563
0.382,-0.062,0.000,116.638,-391.907,-9.155
0.401,-0.043,-0.171,118.347,-397.644,-14.587
0.431,-0.017,-0.390,129.395,-402.222,-12.756
0.516,0.040,-0.660,152.344,-403.809,-4.333
0.596,0.167,-0.990,179.138,-398.743,7.690
0.671,0.292,-1.357,203.247,-387.390,20.020
0.699,0.416,-1.766,215.088,-367.310,28.748
0.688,0.531,-2.188,210.571,-336.731,31.921
0.617,0.547,-2.549,183.044,-292.969,28.259
0.514,0.534,-2.761,130.249,-234.131,18.860
0.400,0.518,-2.811,63.354,-159.668,4.639
0.257,0.451,-2.657,-1.465,-75.073,-7.935
0.106,0.371,-2.322,-53.040,7.935,-15.320
-0.052,0.289,-1.786,-88.806,71.655,-18.127
-0.273,0.096,-1.139,-108.276,98.938,-23.376
-0.502,-0.024,-0.535,-125.183,96.802,-33.630
-0.720,-0.140,-0.140,-137.146,77.637,-43.884
-0.930,-0.261,0.077,-137.695,50.110,-49.927
-1.102,-0.350,0.166,-126.160,30.396,-45.654
-1.226,-0.408,0.180,-103.210,26.184,-31.982
-1.294,-0.429,0.159,-75.806,35.645,-12.878
-1.303,-0.432,0.133,-48.767,48.340,6.470
-1.275,-0.421,0.084,-29.602,55.603,22.705
-1.219,-0.427,0.033,-18.738,55.359,33.936
-1.152,-0.438,0.005,-14.771,48.828,38.269
-1.074,-0.459,0.003,-13.062,37.537,36.377
-1.005,-0.469,0.011,-10.559,22.583,29.785
-0.958,-0.479,0.000,-6.714,5.127,20.264
-0.918,-0.487,-0.030,-3.479,-11.719,9.583
-0.900,-0.496,-0.066,-1.282,-24.170,0.122
-0.894,-0.501,-0.087,0.122,-28.748,-7.080
-0.881,-0.490,-0.097,1.831,-25.818,-12.085
-0.873,-0.463,-0.114,4.333,-17.944,-14.648
-0.860,-0.433,-0.124,7.446,-8.728,-14.771
-0.859,-0.400,-0.145,9.216,-1.648,-12.634
-0.852,-0.363,-0.156,11.292,3.906,-9.094
-0.849,-0.333,-0.171,13.428,7.690,-5.676
-0.854,-0.315,-0.186,15.015,8.606,-3.418
-0.869,-0.298,-0.203,15.015,7.935,-2.747
-0.887,-0.292,-0.214,13.062,6.775,-3.662
-0.909,-0.284,-0.220,8.911,5.127,-5.310
-0.931,-0.280,-0.224,4.578,2.991,-6.653
-0.956,-0.276,-0.226,1.099,0.977,-7.751
-0.978,-0.269,-0.237,-0.549,-0.122,-8.057
-0.991,-0.268,-0.255,-0.427,-0.305,-7.080
-0.997,-0.267,-0.268,0.610,0.549,-4.700
-0.996,-0.275,-0.276,2.502,1.648,-1.709
-0.989,-0.279,-0.268,3.601,2.808,1.343
-0.979,-0.282,-0.262,4.028,2.747,2.747
-0.970,-0.289,-0.259,3.479,1.221,2.441
-0.958,-0.294,-0.260,1.038,-0.793,1.282
-0.948,-0.303,-0.263,-2.075,-2.319,0.122
-0.939,-0.322,-0.259,-4.883,-2.319,-0.671
-0.931,-0.339,-0.250,-6.958,-0.671,-0.305
-0.920,-0.355,-0.232,-8.545,2.502,0.427
-0.904,-0.369,-0.214,-8.545,6.409,0.916
-0.893,-0.382,-0.194,-7.812,9.888,1.038
-0.882,-0.387,-0.177,-6.470,12.268,1.282
-0.872,-0.384,-0.167,-4.639,13.184,1.465
-0.861,-0.372,-0.169,-2.808,12.512,1.648
-0.853,-0.359,-0.185,-2.502,11.169,1.038
-0.843,-0.337,-0.210,-3.418,10.559,0.549
-0.833,-0.307,-0.233,-4.517,11.353,0.427
-0.830,-0.280,-0.254,-5.249,12.817,0.305
-0.836,-0.258,-0.260,-5.310,13.733,0.671
-0.847,-0.253,-0.245,-4.639,12.756,1.221
-0.868,-0.270,-0.207,-3.235,9.644,1.099
-0.892,-0.297,-0.175,-1.404,6.226,-0.061
-0.911,-0.322,-0.161,0.305,3.601,-1.160
-0.927,-0.345,-0.154,1.038,2.686,-1.587
-0.935,-0.360,-0.145,1.160,3.662,-1.099
-0.940,-0.370,-0.135,2.014,6.104,-0.549
-0.940,-0.370,-0.134,3.235,7.385,-0.549
-0.940,-0.360,-0.141,4.150,6.958,-1.038
-0.946,-0.351,-0.154,4.395,5.615,-1.709
-0.955,-0.340,-0.168,4.028,4.272,-2.441
-0.961,-0.329,-0.182,4.028,3.235,-2.380
-0.967,-0.323,-0.194,4.700,2.747,-1.099
-0.967,-0.320,-0.205,5.127,3.174,0.732
-0.960,-0.322,-0.213,5.859,4.028,2.563
-0.947,-0.329,-0.219,5.737,5.066,3.662
-0.933,-0.338,-0.216,4.456,6.165,3.662
-0.923,-0.345,-0.208,2.441,6.958,2.563
-0.916,-0.349,-0.195,0.549,7.446,1.404
-0.913,-0.352,-0.175,-0.854,7.996,-0.122
-0.915,-0.349,-0.159,-0.916,8.667,-1.648
-0.921,-0.342,-0.150,-0.366,8.362,-2.441
-0.925,-0.338,-0.145,-0.183,6.897,-2.686
-0.927,-0.334,-0.145,0.000,4.822,-2.380
-0.927,-0.335,-0.151,0.610,2.991,-1.404
-0.924,-0.336,-0.161,1.404,2.319,-0.305
-0.916,-0.329,-0.171,2.625,2.197,0.671

0.227,0.245,2.539,15.930,15.381,23.865
0.199,0.233,2.755,27.344,-10.254,35.767
0.178,0.161,2.897,36.133,-55.176,45.227
0.230,0.052,2.919,36.865,-114.441,50.842
0.379,-0.038,2.808,33.936,-179.687,53.284
0.603,-0.102,2.718,33.081,-233.887,52.856
0.814,-0.163,2.624,39.185,-267.761,52.185
0.909,-0.218,2.537,52.734,-280.945,50.842
0.842,-0.238,2.484,67.932,-282.959,47.241
0.785,-0.186,2.386,77.576,-282.959,38.757
0.709,-0.120,2.254,81.421,-286.255,27.527
0.647,-0.042,2.082,77.271,-297.729,15.381
0.651,0.035,1.894,67.322,-317.200,1.892
0.638,0.088,1.662,53.162,-340.088,-8.423
0.624,0.129,1.395,38.086,-360.779,-11.780
0.595,0.135,1.116,25.085,-377.869,-8.667
0.563,0.101,0.850,15.686,-391.235,-1.648
0.560,0.035,0.617,9.338,-400.024,6.348
0.536,-0.018,0.385,5.859,-403.564,14.893
0.531,-0.045,0.206,6.958,-404.236,21.057
0.554,-0.094,0.098,13.855,-400.146,22.705
0.483,-0.135,-0.021,20.996,-390.015,20.081
0.429,-0.146,-0.126,31.799,-377.991,16.418
0.349,-0.187,-0.226,44.250,-368.164,12.390
0.289,-0.203,-0.344,53.345,-360.718,9.766
0.265,-0.217,-0.436,60.425,-356.995,10.010
0.263,-0.236,-0.547,65.369,-355.591,11.841
0.280,-0.280,-0.609,68.481,-353.516,13.428
0.208,-0.337,-0.710,70.801,-346.863,13.428
0.126,-0.341,-0.821,75.684,-337.585,9.521
0.074,-0.348,-0.877,87.219,-327.209,2.136
-0.013,-0.345,-0.966,101.196,-316.956,-6.348
-0.079,-0.296,-1.086,113.525,-311.646,-13.245
-0.103,-0.240,-1.272,124.023,-313.049,-17.395
-0.052,-0.146,-1.488,130.615,-311.462,-16.113
-0.085,-0.060,-1.720,127.869,-294.678,-11.780
-0.118,0.010,-1.896,112.793,-257.202,-6.348
-0.209,0.029,-1.962,87.341,-200.073,-3.235
-0.311,0.015,-1.851,57.495,-124.207,-2.502
-0.419,0.029,-1.577,31.189,-51.147,-6.531
-0.523,0.007,-1.237,14.832,2.747,-13.916
-0.651,0.020,-0.887,4.272,29.358,-22.278
-0.790,0.020,-0.608,0.916,30.518,-28.503
-0.900,0.028,-0.435,1.343,14.893,-31.494
-0.979,-0.004,-0.324,1.587,-5.493,-31.555
-1.048,-0.097,-0.225,-0.549,-19.836,-29.358
-1.117,-0.147,-0.143,-3.662,-26.245,-26.306
-1.130,-0.163,-0.089,-7.263,-31.677,-23.560
-1.121,-0.197,-0.075,-7.507,-39.673,-20.325
-1.112,-0.245,-0.086,-3.357,-47.607,-16.418
-1.098,-0.283,-0.115,3.845,-54.626,-12.085
-1.054,-0.308,-0.172,13.123,-62.927,-7.568
-1.011,-0.309,-0.234,22.522,-73.120,-3.479
-0.965,-0.329,-0.323,28.503,-81.726,-2.075
-0.909,-0.319,-0.443,28.015,-85.144,-3.418
-0.851,-0.303,-0.545,22.705,-82.458,-8.179
-0.812,-0.277,-0.630,14.465,-72.693,-14.709
-0.796,-0.221,-0.682,7.507,-54.871,-20.569
-0.785,-0.154,-0.656,5.249,-34.058,-23.987
-0.774,-0.094,-0.637,4.822,-15.137,-26.062
-0.771,-0.032,-0.621,2.441,0.610,-25.085
-0.790,0.006,-0.585,-0.549,11.841,-21.484
-0.810,0.018,-0.530,-3.418,19.470,-16.418
-0.827,0.017,-0.472,-6.165,24.353,-11.597
-0.854,0.001,-0.428,-6.409,26.672,-7.019
-0.878,-0.013,-0.394,-5.798,27.527,-4.089
-0.901,-0.031,-0.365,-5.005,27.954,-1.892
-0.918,-0.055,-0.337,-5.066,27.832,-0.366
-0.940,-0.086,-0.320,-6.531,27.466,0.916
-0.960,-0.114,-0.300,-8.545,25.940,1.587
-0.973,-0.137,-0.290,-9.644,22.705,2.380
-0.980,-0.157,-0.291,-10.315,17.822,2.563
-0.981,-0.178,-0.301,-10.132,11.597,2.686
-0.971,-0.197,-0.321,-8.057,5.554,2.991
-0.957,-0.211,-0.360,-5.005,0.916,3.418
-0.943,-0.219,-0.397,-1.404,-1.282,3.235
-0.923,-0.212,-0.426,2.502,-1.526,2.930
-0.903,-0.196,-0.443,4.944,-0.122,1.709
-0.888,-0.183,-0.450,5.737,2.014,0.000
-0.880,-0.164,-0.453,5.188,4.395,-1.160
-0.869,-0.150,-0.442,3.418,6.775,-2.319
-0.876,-0.143,-0.428,0.610,8.789,-2.930
-0.879,-0.145,-0.401,-1.221,10.620,-3.113
-0.885,-0.150,-0.374,-2.380,12.146,-3.235
-0.894,-0.156,-0.349,-2.686,12.390,-3.296
-0.898,-0.159,-0.335,-1.831,11.169,-3.174
-0.903,-0.159,-0.334,-0.488,8.728,-2.747
-0.913,-0.160,-0.340,0.488,6.958,-2.319
-0.914,-0.157,-0.345,0.854,6.653,-1.404
-0.909,-0.155,-0.351,0.427,6.958,-0.610
-0.906,-0.154,-0.363,0.427,7.141,-0.305
-0.904,-0.149,-0.377,0.977,7.019,-0.366
-0.899,-0.144,-0.391,1.038,6.836,-0.610
-0.903,-0.140,-0.406,0.793,7.263,-1.160
-0.905,-0.136,-0.412,0.916,8.301,-1.343
-0.905,-0.135,-0.418,0.183,9.521,-1.587
-0.906,-0.134,-0.420,-0.366,10.986,-1.526
-0.910,-0.135,-0.418,-0.366,12.451,-1.404
-0.910,-0.139,-0.407,-0.244,13.977,-1.282
-0.915,-0.142,-0.396,0.000,15.137,-0.977
-0.915,-0.146,-0.384,1.221,15.564,0.000
-0.912,-0.150,-0.378,1.953,15.503,0.610
-0.907,-0.154,-0.370,2.075,15.259,0.793
-0.908,-0.153,-0.361,1.953,14.648,0.427
-0.908,-0.150,-0.353,2.258,13.855,-0.427
-0.917,-0.145,-0.348,2.197,13.123,-1.648
-0.924,-0.145,-0.341,2.258,12.390,-2.441
-0.927,-0.145,-0.340,1.160,12.024,-3.174
-0.932,-0.149,-0.336,0.427,12.573,-3.479
-0.938,-0.152,-0.325,0.671,13.916,-3.479
-0.939,-0.148,-0.311,1.526,15.625,-3.113
-0.939,-0.144,-0.297,2.136,16.235,-2.747
-0.936,-0.138,-0.288,2.319,15.381,-2.197
-0.933,-0.133,-0.282,1.892,13.000,-2.319
-0.936,-0.127,-0.278,1.953,10.376,-2.563
-0.939,-0.116,-0.281,1.953,8.118,-2.869
-0.939,-0.106,-0.290,1.831,6.409,-2.991
-0.939,-0.096,-0.294,1.221,5.493,-2.930
-0.945,-0.096,-0.301,0.732,5.371,-2.075

0.198,-0.096,2.584,24.597,-95.459,9.277
0.205,-0.120,2.732,27.222,-136.475,11.230
0.244,-0.154,2.780,33.508,-179.810,14.099
0.338,-0.155,2.786,42.480,-220.398,18.127
0.410,-0.125,2.774,50.476,-253.540,23.315
0.442,-0.103,2.742,53.528,-282.532,28.809
0.469,-0.088,2.699,48.828,-310.181,33.875
0.500,-0.067,2.605,39.917,-338.318,36.316
0.543,-0.045,2.497,33.325,-366.821,38.513
0.530,-0.029,2.369,31.860,-393.616,41.199
0.503,-0.022,2.238,35.461,-419.006,43.579
0.427,0.007,2.035,41.260,-444.946,43.823
0.372,0.046,1.734,45.166,-468.506,44.006
0.359,0.066,1.413,44.434,-484.497,44.067
0.346,0.047,1.103,37.781,-489.319,42.480
0.321,0.026,0.806,26.550,-480.530,39.612
0.289,-0.010,0.545,16.907,-461.975,37.231
0.268,-0.082,0.322,12.451,-438.232,35.889
0.234,-0.158,0.152,14.282,-412.109,36.194
0.234,-0.202,0.018,21.240,-387.024,37.415
0.237,-0.227,-0.096,31.189,-365.234,37.048
0.277,-0.248,-0.179,40.222,-347.473,33.081
0.305,-0.257,-0.249,45.471,-333.069,25.696
0.288,-0.271,-0.316,47.058,-322.632,14.282
0.301,-0.282,-0.354,47.913,-316.284,2.014
0.269,-0.285,-0.461,48.645,-311.279,-7.935
0.260,-0.266,-0.558,53.833,-307.983,-14.954
0.258,-0.254,-0.669,64.270,-305.298,-19.592
0.267,-0.240,-0.774,77.393,-302.979,-22.034
0.275,-0.193,-0.944,90.332,-303.040,-23.071
0.349,-0.124,-1.091,104.980,-309.082,-24.170
0.443,-0.085,-1.223,119.080,-318.604,-26.184
0.375,-0.034,-1.374,129.089,-325.134,-30.945
0.340,0.046,-1.503,133.057,-327.759,-39.063
0.326,0.114,-1.576,129.456,-326.660,-50.415
0.266,0.181,-1.646,113.159,-317.383,-62.073
0.199,0.210,-1.775,86.609,-295.532,-72.205
0.116,0.256,-1.967,54.382,-255.859,-76.111
0.038,0.311,-2.104,27.771,-193.298,-70.007
-0.039,0.350,-2.111,10.376,-113.159,-54.688
-0.130,0.369,-1.939,-0.061,-30.151,-32.715
-0.229,0.346,-1.646,-5.005,39.307,-9.338
-0.367,0.297,-1.258,-8.240,85.144,8.972
-0.539,0.229,-0.912,-11.169,107.300,18.372
-0.709,0.152,-0.641,-13.000,108.948,18.982
-0.846,0.068,-0.431,-16.418,95.093,14.648
-0.965,-0.018,-0.318,-22.217,74.951,9.827
-1.043,-0.107,-0.270,-27.405,56.641,6.348
-1.083,-0.196,-0.267,-28.625,43.579,6.165
-1.086,-0.250,-0.297,-24.109,37.598,9.766
-1.068,-0.276,-0.334,-16.663,37.476,14.771
-1.018,-0.283,-0.366,-9.460,39.429,19.104
-0.963,-0.273,-0.397,-3.357,40.283,22.156
-0.904,-0.259,-0.414,-0.793,38.330,21.973
-0.866,-0.245,-0.427,-0.549,34.241,18.433
-0.846,-0.223,-0.441,-1.648,29.846,12.146
-0.838,-0.197,-0.454,-3.662,26.184,4.395
-0.841,-0.169,-0.451,-6.226,23.193,-2.563
-0.851,-0.134,-0.442,-6.897,21.301,-7.141
-0.861,-0.099,-0.440,-6.348,21.790,-10.315
-0.891,-0.080,-0.444,-5.310,24.231,-11.658
-0.913,-0.049,-0.442,-5.127,27.466,-10.681
-0.928,-0.022,-0.443,-4.395,31.433,-7.751
-0.936,-0.020,-0.454,-3.235,35.400,-4.272
-0.943,-0.034,-0.459,-1.282,38.269,-0.427
-0.935,-0.047,-0.463,-0.977,40.039,3.235
-0.925,-0.071,-0.453,-1.282,40.894,5.981
-0.911,-0.095,-0.434,-1.038,40.527,7.690
-0.896,-0.113,-0.415,-0.427,37.354,8.240
-0.889,-0.138,-0.411,0.671,31.860,7.263
-0.887,-0.156,-0.422,2.197,25.391,5.676
-0.882,-0.165,-0.442,2.075,19.897,2.869
-0.878,-0.176,-0.465,1.465,16.541,-0.366
-0.869,-0.178,-0.474,0.916,15.869,-2.869
-0.862,-0.163,-0.484,0.488,17.212,-4.639
-0.860,-0.152,-0.490,0.610,18.738,-5.859
-0.867,-0.149,-0.490,0.916,20.874,-5.859
-0.875,-0.140,-0.481,0.305,23.254,-4.944
-0.880,-0.129,-0.468,-0.549,25.879,-3.723
-0.883,-0.125,-0.456,-1.038,27.771,-2.441
-0.886,-0.128,-0.436,-0.916,28.381,-1.038
-0.893,-0.132,-0.404,-0.610,28.076,-0.427
-0.901,-0.136,-0.381,0.793,26.001,-0.610
-0.909,-0.137,-0.368,1.038,22.705,-1.648
-0.911,-0.137,-0.363,0.610,19.592,-2.625
-0.915,-0.133,-0.362,-0.183,17.273,-3.235
-0.921,-0.126,-0.366,-0.183,15.869,-3.540
-0.923,-0.119,-0.368,0.183,14.709,-3.601
-0.924,-0.113,-0.375,0.366,13.855,-2.747
-0.924,-0.115,-0.380,-0.427,13.733,-1.892
-0.925,-0.117,-0.385,-1.221,14.648,-0.488
-0.919,-0.122,-0.386,-1.465,16.296,0.732
-0.910,-0.125,-0.385,-1.465,17.700,1.770
-0.905,-0.129,-0.382,-1.038,18.555,2.258
-0.905,-0.129,-0.379,0.366,19.165,2.991
-0.908,-0.128,-0.373,0.916,19.043,2.563
-0.910,-0.128,-0.370,-0.488,18.433,1.038
-0.911,-0.133,-0.367,-2.747,17.334,-1.099
-0.918,-0.140,-0.363,-4.089,16.602,-2.808
-0.923,-0.139,-0.359,-4.639,16.113,-4.089
-0.925,-0.135,-0.360,-3.723,15.564,-4.395
-0.927,-0.128,-0.365,-2.808,15.259,-4.456
-0.925,-0.120,-0.371,-1.770,15.381,-4.150
-0.921,-0.111,-0.379,-1.099,15.686,-3.784
-0.915,-0.106,-0.380,-1.038,15.991,-3.540
-0.911,-0.105,-0.376,-1.831,16.174,-3.357
-0.914,-0.106,-0.367,-1.770,16.235,-3.235
-0.915,-0.103,-0.358,-1.160,15.015,-3.479
-0.917,-0.097,-0.351,-0.793,13.184,-3.662
-0.922,-0.094,-0.354,-0.854,11.108,-3.418
-0.926,-0.093,-0.353,-1.160,9.888,-3.296
-0.928,-0.092,-0.351,-1.343,9.827,-2.991
-0.930,-0.094,-0.342,-0.671,10.925,-1.892
-0.936,-0.098,-0.327,-0.549,12.695,-1.221
-0.939,-0.101,-0.314,-1.404,14.221,-1.160
-0.936,-0.102,-0.302,-2.930,15.015,-1.282
-0.936,-0.104,-0.292,-4.028,14.526,-1.526
-0.937,-0.108,-0.290,-3.906,13.245,-1.526
-0.936,-0.111,-0.287,-2.014,11.169,-0.732

0.013,-0.088,2.729,44.006,-151.917,13.184
0.061,-0.112,2.801,51.147,-201.904,13.916
0.137,-0.107,2.835,57.617,-247.620,18.433
0.192,-0.126,2.829,58.472,-288.879,25.208
0.239,-0.141,2.823,55.786,-325.623,31.372
0.251,-0.127,2.768,57.678,-360.718,33.875
0.282,-0.102,2.670,64.087,-392.700,35.645
0.288,-0.054,2.547,67.993,-416.992,40.100
0.233,-0.042,2.412,68.665,-431.458,43.945
0.149,0.005,2.165,65.308,-437.561,44.678
0.091,0.022,1.892,56.152,-437.317,42.908
0.039,0.039,1.622,41.626,-431.396,39.124
0.002,0.059,1.344,25.024,-420.898,35.889
-0.020,0.047,1.071,9.705,-408.142,33.997
-0.023,0.026,0.821,0.366,-394.348,34.546
-0.017,-0.010,0.614,-1.526,-380.066,35.645
-0.021,-0.030,0.380,1.099,-367.310,35.889
0.029,-0.087,0.219,8.240,-357.605,34.424
0.094,-0.124,0.110,17.334,-349.976,32.349
0.106,-0.147,-0.072,26.123,-343.201,28.992
0.157,-0.167,-0.274,35.034,-339.966,24.109
0.217,-0.204,-0.467,43.640,-338.928,17.761
0.283,-0.219,-0.634,48.401,-334.900,10.864
0.333,-0.224,-0.743,49.377,-325.134,3.845
0.314,-0.240,-0.888,48.645,-311.218,-4.578
0.307,-0.237,-1.043,47.607,-298.523,-13.977
0.356,-0.225,-1.163,49.683,-289.185,-22.461
0.390,-0.204,-1.300,52.917,-280.823,-27.649
0.392,-0.176,-1.459,57.678,-274.414,-29.480
0.401,-0.151,-1.572,64.880,-269.409,-29.053
0.415,-0.078,-1.682,70.740,-260.681,-27.954
0.425,-0.036,-1.727,73.975,-248.962,-28.931
0.359,-0.043,-1.708,70.801,-229.858,-31.433
0.227,-0.067,-1.648,61.584,-199.585,-33.264
0.041,-0.076,-1.523,51.575,-162.476,-36.438
-0.165,-0.066,-1.368,40.588,-125.122,-40.833
-0.341,-0.047,-1.201,29.114,-92.285,-43.213
-0.491,-0.023,-1.025,15.991,-65.430,-44.556
-0.617,0.005,-0.873,5.493,-46.936,-44.678
-0.698,0.011,-0.713,0.610,-35.706,-43.152
-0.775,0.030,-0.575,3.418,-33.447,-41.260
-0.831,0.092,-0.503,12.878,-41.992,-40.039
-0.868,0.131,-0.510,21.118,-57.190,-37.598
-0.889,0.133,-0.619,18.494,-68.298,-34.363
-0.901,0.099,-0.739,8.850,-69.763,-29.480
-0.879,0.049,-0.850,1.831,-60.669,-20.386
-0.836,0.006,-0.915,1.343,-43.213,-6.836
-0.789,-0.047,-0.921,4.517,-22.278,6.836
-0.749,-0.081,-0.903,6.592,-1.953,18.005
-0.725,-0.117,-0.856,3.540,15.259,23.315
-0.739,-0.165,-0.760,-3.357,31.494,21.912
-0.758,-0.185,-0.639,-7.935,43.579,15.747
-0.762,-0.171,-0.512,-9.949,46.997,7.690
-0.785,-0.142,-0.445,-12.573,42.847,0.061
-0.826,-0.124,-0.432,-13.245,35.400,-4.395
-0.850,-0.110,-0.439,-13.123,28.992,-5.920
-0.865,-0.091,-0.455,-11.414,27.039,-4.456
-0.875,-0.075,-0.473,-8.057,29.358,-1.343
-0.877,-0.062,-0.481,-4.700,32.349,2.625
-0.867,-0.054,-0.483,-2.808,33.386,5.554
-0.869,-0.060,-0.487,-1.221,32.593,7.690
-0.878,-0.063,-0.482,-0.244,30.273,9.033
-0.871,-0.073,-0.485,0.732,25.391,9.705
-0.883,-0.093,-0.511,1.953,20.020,9.766
-0.884,-0.099,-0.523,2.319,14.954,9.766
-0.879,-0.109,-0.540,2.197,12.146,9.399
-0.869,-0.119,-0.552,3.235,11.475,9.094
-0.860,-0.126,-0.558,4.150,12.634,8.850
-0.851,-0.126,-0.554,4.700,14.404,8.179
-0.849,-0.127,-0.549,5.066,16.418,7.385
-0.847,-0.130,-0.539,4.700,17.578,6.653
-0.840,-0.135,-0.523,3.174,17.883,5.493
-0.842,-0.137,-0.513,2.991,16.968,4.395
-0.839,-0.138,-0.505,2.441,14.954,2.686
-0.835,-0.135,-0.504,0.793,12.634,1.160
-0.837,-0.137,-0.505,-0.366,10.681,0.183
-0.841,-0.141,-0.506,-0.061,9.949,0.244
-0.843,-0.140,-0.508,0.854,10.132,0.671
-0.838,-0.135,-0.511,2.197,10.620,1.404
-0.838,-0.130,-0.514,2.197,11.108,1.404
-0.843,-0.130,-0.521,1.526,12.573,1.099
-0.847,-0.128,-0.520,1.709,14.587,1.282
-0.851,-0.123,-0.514,2.502,16.724,1.709
-0.856,-0.118,-0.500,2.747,18.188,1.770
-0.855,-0.110,-0.488,2.563,18.005,1.831
-0.858,-0.111,-0.484,1.343,16.479,1.160
-0.860,-0.115,-0.479,0.244,14.282,0.366
-0.870,-0.120,-0.481,-0.244,12.512,0.000
-0.878,-0.122,-0.477,0.549,11.719,0.122
-0.882,-0.120,-0.478,1.282,11.963,0.183
-0.881,-0.114,-0.482,2.686,12.573,1.160
-0.880,-0.108,-0.486,3.174,13.489,1.343
-0.881,-0.103,-0.492,3.174,14.099,1.343
-0.878,-0.096,-0.495,3.052,13.611,1.343
-0.875,-0.097,-0.490,2.686,12.817,1.465
-0.871,-0.100,-0.484,1.465,12.146,1.160
-0.865,-0.103,-0.480,1.404,11.047,1.526
-0.865,-0.106,-0.472,1.770,9.827,1.465
-0.868,-0.105,-0.470,2.258,8.728,1.343
-0.865,-0.101,-0.472,2.197,7.935,1.282
-0.866,-0.101,-0.470,1.221,7.568,0.916
-0.870,-0.107,-0.471,-0.244,7.874,0.183
-0.869,-0.110,-0.471,-0.671,8.972,0.244
-0.865,-0.111,-0.470,-0.977,10.376,-0.061
-0.864,-0.116,-0.465,-1.587,10.681,-0.061
-0.867,-0.118,-0.465,-1.892,10.437,-0.305
-0.870,-0.121,-0.462,-1.953,10.010,-0.305
-0.875,-0.122,-0.461,-2.014,9.399,-0.427
-0.882,-0.124,-0.457,-0.916,8.911,0.244
-0.889,-0.123,-0.454,-0.061,8.789,0.366
-0.891,-0.122,-0.452,0.000,8.362,0.244
-0.888,-0.120,-0.450,-0.366,7.751,-0.244
-0.885,-0.121,-0.452,-0.610,7.263,-0.671
-0.880,-0.117,-0.457,-0.366,6.897,-1.038
-0.878,-0.111,-0.462,0.854,6.775,-0.671
-0.878,-0.105,-0.464,1.953,6.958,-0.183
-0.879,-0.096,-0.460,2.441,7.507,0.000
-0.883,-0.089,-0.450,2.686,7.568,-0.244
-0.889,-0.087,-0.438,2.197,6.409,-0.793

-0.133,-0.027,2.654,94.299,-13.733,41.687
-0.077,-0.183,2.884,94.177,-48.523,59.387
0.017,-0.305,3.011,81.238,-95.703,60.364
0.111,-0.309,2.976,61.523,-147.339,48.157
0.212,-0.284,2.791,47.424,-195.984,34.058
0.297,-0.263,2.591,43.152,-235.107,27.771
0.331,-0.252,2.369,42.786,-261.230,29.541
0.366,-0.242,2.167,43.335,-276.917,32.715
0.388,-0.234,1.990,41.870,-285.767,32.227
0.423,-0.220,1.889,37.781,-292.542,28.809
0.439,-0.203,1.811,34.790,-299.622,23.193
0.416,-0.198,1.728,33.142,-308.228,17.639
0.375,-0.173,1.612,32.288,-317.810,14.893
0.316,-0.161,1.485,32.959,-329.102,14.709
0.264,-0.141,1.302,31.433,-342.834,14.038
0.223,-0.131,1.123,25.818,-356.689,13.306
0.173,-0.155,0.901,15.564,-369.629,12.451
0.196,-0.203,0.699,3.906,-380.920,12.207
0.231,-0.246,0.543,-4.639,-389.404,12.939
0.224,-0.273,0.363,-6.409,-395.325,13.306
0.265,-0.334,0.201,0.549,-398.560,10.803
0.293,-0.370,0.091,12.817,-400.391,7.141
0.270,-0.373,-0.031,27.283,-402.893,1.221
0.263,-0.371,-0.190,40.710,-408.691,-6.836
0.333,-0.358,-0.330,50.720,-417.053,-14.526
0.374,-0.323,-0.452,56.702,-423.706,-21.118
0.368,-0.282,-0.630,59.082,-423.950,-29.114
0.406,-0.277,-0.798,61.462,-418.579,-37.415
0.443,-0.249,-0.952,61.768,-404.846,-43.640
0.383,-0.245,-1.096,64.453,-378.296,-47.729
0.266,-0.198,-1.281,70.984,-343.384,-49.683
0.224,-0.146,-1.414,80.505,-307.556,-48.340
0.205,-0.089,-1.510,85.754,-276.917,-44.250
0.187,-0.014,-1.578,83.984,-251.465,-38.696
0.166,-0.003,-1.591,78.552,-231.384,-34.241
0.119,0.048,-1.573,71.350,-219.360,-33.752
0.087,0.104,-1.549,65.552,-213.806,-37.659
0.000,0.146,-1.569,56.519,-204.895,-45.837
-0.138,0.168,-1.620,40.100,-182.068,-57.434
-0.274,0.193,-1.628,22.827,-145.020,-68.237
-0.421,0.220,-1.564,7.996,-97.046,-73.364
-0.530,0.240,-1.400,0.122,-45.410,-70.129
-0.632,0.224,-1.141,0.122,-1.160,-59.875
-0.743,0.199,-0.848,6.592,27.344,-45.471
-0.849,0.178,-0.583,17.456,34.607,-31.372
-0.906,0.166,-0.424,26.550,21.301,-19.531
-0.930,0.140,-0.396,27.466,-3.784,-10.193
-0.929,0.080,-0.474,18.372,-28.198,-3.052
-0.912,-0.003,-0.577,4.028,-42.725,2.197
-0.874,-0.088,-0.672,-4.211,-43.579,7.141
-0.830,-0.150,-0.739,-4.822,-32.349,10.620
-0.782,-0.170,-0.777,-1.343,-14.526,12.451
-0.733,-0.157,-0.801,-0.183,3.113,12.634
-0.704,-0.150,-0.815,-4.761,20.874,11.963
-0.682,-0.152,-0.777,-13.184,38.696,10.071
-0.683,-0.158,-0.679,-16.418,52.490,7.446
-0.714,-0.139,-0.558,-12.756,59.082,3.906
-0.759,-0.103,-0.456,-8.484,56.335,-0.732
-0.812,-0.064,-0.398,-9.705,47.546,-5.249
-0.868,-0.052,-0.371,-14.038,38.513,-8.911
-0.918,-0.058,-0.373,-17.395,33.508,-10.620
-0.947,-0.058,-0.374,-15.930,32.410,-8.972
-0.968,-0.040,-0.377,-11.169,34.119,-5.493
-0.984,-0.026,-0.387,-6.592,36.133,-1.770
-0.980,-0.022,-0.401,-3.906,35.950,2.808
-0.969,-0.028,-0.418,-1.892,33.386,7.568
-0.948,-0.043,-0.428,-0.122,28.564,10.620
-0.929,-0.059,-0.439,2.380,21.912,12.146
-0.920,-0.070,-0.463,3.967,14.343,11.597
-0.900,-0.083,-0.487,3.296,7.202,8.667
-0.890,-0.098,-0.511,0.488,1.587,4.822
-0.883,-0.117,-0.537,-2.014,-0.244,1.831
-0.867,-0.131,-0.551,-3.235,1.343,0.244
-0.851,-0.140,-0.567,-2.075,4.700,0.671
-0.836,-0.146,-0.573,-0.854,8.545,1.587
-0.826,-0.145,-0.565,-0.793,12.512,2.380
-0.820,-0.147,-0.542,-1.038,15.442,2.441
-0.826,-0.151,-0.512,-0.854,15.747,2.075
-0.835,-0.149,-0.490,-0.305,13.794,1.221
-0.851,-0.143,-0.481,0.916,11.108,0.732
-0.862,-0.141,-0.482,1.038,8.972,0.366
-0.865,-0.147,-0.483,0.488,8.484,0.244
-0.860,-0.146,-0.475,0.671,9.583,0.366
-0.862,-0.140,-0.476,1.526,11.414,0.549
-0.856,-0.127,-0.474,2.075,12.756,0.000
-0.857,-0.109,-0.475,2.502,12.573,-0.366
-0.859,-0.097,-0.476,2.258,11.353,-0.732
-0.865,-0.086,-0.473,2.136,9.216,-1.160
-0.870,-0.080,-0.474,1.648,7.141,-1.404
-0.873,-0.076,-0.473,1.465,5.859,-1.221
-0.878,-0.073,-0.474,1.343,6.042,-0.671
-0.880,-0.070,-0.473,2.197,6.653,0.549
-0.880,-0.070,-0.475,2.319,6.897,1.099
-0.876,-0.074,-0.484,1.892,7.202,1.221
-0.871,-0.081,-0.491,1.099,7.446,1.526
-0.874,-0.084,-0.497,0.244,7.996,2.075
-0.865,-0.087,-0.495,-0.610,8.179,1.831
-0.865,-0.091,-0.498,-0.916,8.179,1.709
-0.863,-0.093,-0.493,-1.526,7.080,1.404
-0.864,-0.098,-0.495,-1.770,6.165,1.343
-0.863,-0.104,-0.499,-1.038,5.432,1.709
-0.859,-0.110,-0.505,-0.183,5.371,2.136
-0.854,-0.112,-0.505,-0.122,6.165,2.258
-0.858,-0.111,-0.502,0.061,8.057,2.258
-0.862,-0.106,-0.497,-0.549,10.742,1.221
-0.866,-0.101,-0.485,-1.648,12.939,0.183
-0.867,-0.097,-0.471,-2.747,14.343,-0.305
-0.877,-0.101,-0.458,-3.296,14.771,-0.244
-0.883,-0.103,-0.446,-2.808,14.832,0.427
-0.888,-0.106,-0.436,-1.160,14.099,1.709
-0.889,-0.110,-0.432,-0.488,13.000,2.319
-0.891,-0.115,-0.424,0.244,11.536,2.808
-0.898,-0.111,-0.418,1.465,10.071,2.930
-0.901,-0.108,-0.419,2.441,8.545,2.563
-0.898,-0.104,-0.422,1.770,6.775,1.709
-0.893,-0.103,-0.430,1.465,5.127,1.526
-0.887,-0.107,-0.440,2.441,3.906,1.892
-0.883,-0.106,-0.452,5.005,3.845,3.296
-0.884,-0.103,-0.467,8.118,5.188,5.127

0.074,0.062,2.580,8.362,-107.544,-11.963
0.127,0.120,2.607,13.367,-140.137,-1.160
0.178,0.150,2.608,13.794,-168.701,7.751
0.207,0.173,2.561,6.470,-194.946,13.245
0.268,0.194,2.486,-6.531,-219.788,16.174
0.329,0.199,2.403,-18.433,-242.187,19.592
0.343,0.177,2.335,-25.818,-262.329,24.292
0.353,0.156,2.282,-28.748,-282.654,28.931
0.335,0.133,2.207,-26.245,-302.551,34.058
0.296,0.112,2.085,-19.897,-321.106,41.382
0.266,0.103,1.968,-11.414,-339.233,50.720
0.224,0.093,1.778,-3.296,-358.337,59.509
0.211,0.075,1.527,3.967,-377.502,68.237
0.240,0.071,1.269,11.292,-394.836,77.515
0.262,0.036,1.023,18.738,-405.212,84.900
0.261,0.001,0.773,24.658,-406.921,88.867
0.299,-0.068,0.591,28.809,-404.541,89.966
0.382,-0.136,0.530,28.992,-399.292,88.745
0.324,-0.209,0.411,25.208,-391.357,82.642
0.302,-0.290,0.280,23.499,-390.991,73.059
0.343,-0.345,0.151,25.024,-400.879,66.101
0.382,-0.383,0.007,29.663,-415.466,59.937
0.438,-0.414,-0.143,39.063,-430.359,53.223
0.485,-0.370,-0.359,52.002,-445.251,45.898
0.587,-0.347,-0.636,70.435,-457.581,35.828
0.663,-0.347,-0.996,90.942,-458.984,22.583
0.700,-0.301,-1.402,108.826,-443.237,10.193
0.682,-0.182,-1.824,123.169,-410.400,4.028
0.608,-0.062,-2.175,133.179,-362.366,2.563
0.491,0.062,-2.424,132.935,-298.950,2.319
0.423,0.186,-2.518,118.103,-226.501,-0.610
0.341,0.217,-2.456,89.172,-158.203,-7.690
0.195,0.198,-2.270,55.969,-100.891,-15.686
0.042,0.174,-2.024,29.846,-57.922,-21.667
-0.103,0.157,-1.711,14.893,-27.588,-23.499
-0.289,0.130,-1.356,4.578,-3.845,-20.935
-0.516,0.098,-1.004,-4.089,18.066,-17.883
-0.678,0.052,-0.656,-9.888,33.752,-18.982
-0.831,0.015,-0.362,-12.817,35.828,-22.156
-0.979,-0.012,-0.162,-16.357,28.137,-25.513
-1.091,-0.032,-0.048,-19.653,13.611,-27.588
-1.162,-0.075,0.002,-20.935,-5.737,-26.550
-1.201,-0.131,0.014,-19.958,-24.658,-21.301
-1.214,-0.186,-0.006,-16.113,-39.612,-13.855
-1.181,-0.242,-0.078,-9.094,-51.697,-6.653
-1.109,-0.276,-0.185,-1.770,-61.829,-1.221
-1.043,-0.294,-0.289,5.676,-70.374,1.770
-0.974,-0.302,-0.383,12.573,-76.050,0.488
-0.911,-0.286,-0.468,14.587,-79.468,-4.272
-0.862,-0.274,-0.553,12.268,-79.529,-10.925
-0.831,-0.261,-0.634,8.667,-73.303,-16.174
-0.806,-0.244,-0.681,6.287,-60.608,-18.616
-0.787,-0.220,-0.707,6.409,-43.213,-17.944
-0.767,-0.182,-0.715,7.446,-22.522,-15.137
-0.755,-0.122,-0.701,8.606,-0.549,-10.620
-0.750,-0.080,-0.637,8.057,20.813,-7.141
-0.764,-0.039,-0.542,6.714,36.743,-4.700
-0.770,0.003,-0.465,5.676,42.847,-4.395
-0.802,0.030,-0.426,4.028,40.405,-6.165
-0.839,0.063,-0.418,0.122,33.325,-8.789
-0.867,0.068,-0.427,-5.676,26.184,-11.230
-0.885,0.053,-0.453,-11.719,23.193,-11.841
-0.894,0.030,-0.464,-12.329,23.926,-9.521
-0.904,0.007,-0.465,-8.301,25.085,-5.615
-0.920,-0.030,-0.450,-3.357,24.780,-1.648
-0.931,-0.055,-0.446,-1.160,23.071,2.991
-0.940,-0.086,-0.437,-1.343,20.569,6.897
-0.948,-0.122,-0.429,-2.380,18.372,8.728
-0.951,-0.153,-0.417,-2.136,17.029,9.216
-0.953,-0.175,-0.402,-1.282,16.052,8.118
-0.946,-0.188,-0.394,-0.732,13.794,5.615
-0.939,-0.191,-0.398,-0.977,10.498,2.747
-0.934,-0.187,-0.413,-1.282,6.958,-0.061
-0.920,-0.172,-0.422,-1.953,4.395,-2.014
-0.910,-0.158,-0.422,-1.587,3.235,-2.197
-0.901,-0.146,-0.416,-1.038,3.113,-1.587
-0.889,-0.146,-0.416,-0.610,3.052,-0.305
-0.882,-0.150,-0.423,0.244,3.174,1.160
-0.876,-0.144,-0.428,1.343,4.456,1.465
-0.871,-0.128,-0.424,1.587,6.409,0.122
-0.875,-0.114,-0.418,1.648,8.057,-1.160
-0.882,-0.103,-0.406,1.160,9.521,-2.380
-0.888,-0.092,-0.394,1.892,10.071,-2.808
-0.893,-0.088,-0.387,3.662,9.399,-2.502
-0.902,-0.086,-0.388,4.822,8.118,-1.709
-0.909,-0.090,-0.389,4.822,7.141,-0.854
-0.913,-0.097,-0.391,4.944,6.897,0.427
-0.912,-0.104,-0.389,3.845,7.080,1.343
-0.914,-0.110,-0.391,2.625,7.141,1.953
-0.913,-0.113,-0.398,1.770,7.019,2.197
-0.911,-0.113,-0.406,1.343,6.409,2.075
-0.906,-0.112,-0.414,0.488,5.798,1.404
-0.899,-0.111,-0.421,0.732,5.554,1.221
-0.903,-0.114,-0.422,1.099,5.310,1.099
-0.914,-0.111,-0.422,2.014,5.127,1.160
-0.915,-0.108,-0.419,2.625,5.127,0.977
-0.912,-0.109,-0.420,1.953,4.333,0.793
-0.908,-0.113,-0.422,0.610,4.150,0.854
-0.908,-0.119,-0.423,1.160,4.456,1.831
-0.904,-0.126,-0.421,1.526,5.310,2.258
-0.899,-0.125,-0.418,0.977,6.165,1.831
-0.892,-0.125,-0.408,0.488,6.653,0.977
-0.898,-0.122,-0.399,0.244,7.507,0.061
-0.901,-0.113,-0.386,-0.061,8.362,-1.099
-0.907,-0.104,-0.378,0.488,8.484,-1.770
-0.911,-0.094,-0.373,0.977,7.812,-1.770
-0.918,-0.089,-0.371,1.648,6.470,-1.099
-0.926,-0.088,-0.370,1.770,5.249,-0.366
-0.928,-0.091,-0.376,0.916,4.028,0.305
-0.923,-0.099,-0.382,-0.610,3.174,0.366
-0.915,-0.104,-0.387,-1.038,2.869,0.732
-0.908,-0.109,-0.390,-0.671,3.174,1.160
-0.907,-0.111,-0.390,-0.122,3.845,1.709
-0.904,-0.112,-0.388,0.061,4.272,1.831
-0.902,-0.113,-0.393,-0.488,3.906,1.343
-0.896,-0.114,-0.395,-1.587,3.235,-0.061
-0.901,-0.114,-0.393,-1.465,3.052,-0.671
-0.906,-0.111,-0.392,-0.854,3.723,-0.793
-0.910,-0.107,-0.388,-0.183,3.906,-0.793

0.207,0.060,2.441,34.119,-15.930,10.071
0.201,0.102,2.503,36.438,-33.875,11.047
0.243,0.159,2.443,32.898,-51.575,8.911
0.244,0.156,2.404,26.550,-78.491,4.272
0.283,0.170,2.324,20.203,-110.779,0.183
0.316,0.161,2.256,17.334,-145.813,0.244
0.359,0.125,2.159,15.259,-179.382,5.127
0.378,0.078,2.079,15.015,-211.670,11.292
0.392,0.046,1.969,21.606,-239.685,18.738
0.444,0.040,1.836,33.875,-262.207,27.771
0.467,0.044,1.718,44.250,-281.860,36.377
0.431,0.043,1.553,47.180,-298.157,42.297
0.375,0.026,1.382,43.945,-311.035,45.288
0.296,0.007,1.186,36.987,-322.205,46.753
0.213,-0.029,1.010,28.442,-333.740,47.363
0.145,-0.075,0.829,18.494,-346.924,47.058
0.129,-0.126,0.653,8.057,-361.023,46.753
0.111,-0.184,0.510,0.244,-375.549,46.814
0.099,-0.244,0.367,-5.493,-390.808,45.715
0.116,-0.288,0.264,-10.559,-405.090,43.274
0.121,-0.323,0.165,-12.512,-416.687,39.490
0.120,-0.353,0.091,-12.024,-425.659,33.508
0.107,-0.370,-0.024,-11.108,-430.664,24.719
0.126,-0.385,-0.154,-6.348,-432.251,14.648
0.141,-0.396,-0.321,4.089,-428.955,5.188
0.154,-0.397,-0.523,19.165,-418.823,-2.502
0.179,-0.405,-0.643,37.354,-403.503,-7.690
0.106,-0.392,-0.799,53.528,-381.714,-11.169
0.045,-0.366,-0.925,69.580,-358.215,-13.794
0.005,-0.327,-1.019,85.510,-337.463,-14.526
-0.030,-0.278,-1.165,96.375,-322.754,-14.771
0.002,-0.209,-1.346,99.243,-313.171,-15.930
0.037,-0.143,-1.566,94.177,-305.542,-19.043
0.077,-0.068,-1.782,83.313,-293.823,-25.208
0.074,-0.012,-1.936,71.106,-272.400,-32.715
0.002,0.058,-1.999,58.594,-237.915,-37.659
-0.093,0.137,-1.952,45.715,-190.796,-40.344
-0.214,0.197,-1.802,33.203,-138.428,-41.809
-0.359,0.233,-1.603,21.179,-86.975,-42.297
-0.508,0.248,-1.360,7.446,-39.612,-41.748
-0.656,0.250,-1.070,-6.104,-1.282,-40.710
-0.796,0.228,-0.769,-16.602,25.696,-37.781
-0.902,0.200,-0.473,-23.743,40.466,-34.180
-0.986,0.153,-0.172,-25.391,40.161,-31.128
-1.074,0.112,0.046,-20.630,22.949,-28.259
-1.153,0.081,0.135,-11.963,-6.897,-24.231
-1.174,0.041,0.116,-3.662,-40.222,-17.517
-1.192,-0.028,0.019,1.770,-66.467,-8.301
-1.162,-0.072,-0.148,3.723,-79.346,1.282
-1.082,-0.120,-0.342,7.080,-82.153,9.949
-0.982,-0.157,-0.542,12.146,-79.468,15.320
-0.873,-0.172,-0.716,15.808,-71.960,18.066
-0.793,-0.158,-0.832,17.273,-60.242,18.372
-0.734,-0.148,-0.878,15.015,-45.166,15.625
-0.716,-0.136,-0.855,6.714,-29.053,8.606
-0.729,-0.117,-0.801,-4.211,-14.343,-1.343
-0.755,-0.089,-0.723,-14.282,-0.854,-10.437
-0.795,-0.059,-0.646,-20.874,12.268,-15.869
-0.823,-0.038,-0.561,-23.254,25.513,-16.174
-0.848,-0.022,-0.480,-19.958,36.926,-11.780
-0.877,-0.008,-0.413,-13.367,44.128,-5.676
-0.888,0.011,-0.361,-7.141,45.227,0.061
-0.900,0.016,-0.334,-4.028,41.565,4.456
-0.899,0.008,-0.325,-4.028,35.645,7.141
-0.897,-0.012,-0.328,-4.822,28.931,8.301
-0.894,-0.035,-0.348,-3.845,21.240,9.460
-0.894,-0.054,-0.393,-1.892,13.794,9.705
-0.894,-0.067,-0.433,0.244,8.606,9.155
-0.901,-0.086,-0.481,0.977,7.324,7.629
-0.901,-0.089,-0.502,0.000,9.705,5.615
-0.901,-0.098,-0.514,-0.732,13.367,4.944
-0.902,-0.106,-0.508,0.061,17.761,5.493
-0.903,-0.111,-0.490,1.160,21.057,5.920
-0.902,-0.108,-0.464,1.404,22.095,5.371
-0.906,-0.103,-0.435,0.610,21.179,3.662
-0.913,-0.099,-0.410,-0.977,19.043,1.160
-0.918,-0.093,-0.388,-2.747,16.968,-1.343
-0.919,-0.085,-0.373,-2.869,14.771,-2.014
-0.918,-0.083,-0.366,-2.319,12.878,-1.160
-0.918,-0.079,-0.372,-1.221,11.597,1.221
-0.914,-0.087,-0.384,-0.061,9.888,3.845
-0.909,-0.101,-0.404,0.854,8.240,6.165
-0.899,-0.118,-0.422,1.465,7.629,7.446
-0.892,-0.127,-0.432,2.747,7.568,8.606
-0.885,-0.126,-0.436,3.357,7.874,8.728
-0.879,-0.123,-0.429,2.869,8.789,7.751
-0.876,-0.116,-0.417,1.831,8.789,5.554
-0.873,-0.109,-0.411,1.587,7.324,3.052
-0.874,-0.096,-0.408,1.831,5.066,0.854
-0.885,-0.085,-0.414,3.296,3.113,0.549
-0.896,-0.075,-0.418,4.944,2.625,1.038
-0.912,-0.072,-0.425,6.104,3.540,1.953
-0.924,-0.074,-0.420,5.920,5.676,2.930
-0.927,-0.077,-0.416,4.333,7.446,3.479
-0.924,-0.081,-0.415,2.258,8.728,2.808
-0.919,-0.086,-0.411,1.465,8.606,2.380
-0.919,-0.088,-0.402,0.610,7.935,1.526
-0.920,-0.088,-0.395,-0.244,6.592,0.244
-0.919,-0.084,-0.389,-0.732,4.761,-0.977
-0.920,-0.086,-0.392,-0.793,2.563,-1.648
-0.914,-0.087,-0.397,-1.099,0.977,-2.014
-0.913,-0.089,-0.404,-0.671,0.000,-1.587
-0.906,-0.091,-0.414,0.122,0.305,-0.977
-0.902,-0.089,-0.418,1.099,1.587,-0.366
-0.900,-0.087,-0.421,1.282,3.662,0.122
-0.895,-0.084,-0.421,0.488,5.615,0.061
-0.886,-0.079,-0.416,-0.671,6.592,-0.610
-0.891,-0.076,-0.404,-1.099,6.714,-0.610
-0.896,-0.073,-0.394,-1.099,6.836,-0.427
-0.900,-0.074,-0.385,-0.488,6.348,0.183
-0.903,-0.074,-0.382,0.061,5.615,0.793
-0.908,-0.078,-0.383,0.854,4.578,1.465
-0.914,-0.079,-0.385,0.732,3.723,1.465
-0.923,-0.081,-0.386,0.916,3.418,1.221
-0.930,-0.078,-0.385,0.549,3.906,0.732
-0.929,-0.079,-0.383,0.061,4.150,0.427
-0.927,-0.080,-0.388,-0.061,4.150,0.732
-0.924,-0.082,-0.395,0.793,4.028,1.587
-0.913,-0.081,-0.399,1.282,3.723,1.892

0.781,0.092,-2.060,51.025,-289.490,-5.432
0.810,0.124,-2.202,47.424,-274.170,-10.559
0.825,0.159,-2.290,43.274,-253.967,-16.602
0.680,0.128,-2.322,34.363,-220.337,-24.536
0.467,0.133,-2.230,18.738,-169.983,-34.119
0.210,0.115,-2.001,-1.160,-110.840,-44.678
-0.041,0.079,-1.673,-23.071,-48.706,-53.101
-0.280,0.039,-1.286,-38.025,4.639,-56.152
-0.510,0.018,-0.901,-40.649,39.246,-52.185
-0.716,0.020,-0.590,-31.799,51.819,-41.748
-0.894,-0.009,-0.349,-18.677,46.143,-28.198
-1.053,-0.036,-0.219,-6.531,28.870,-14.282
-1.130,-0.060,-0.185,2.686,4.211,-3.052
-1.115,-0.089,-0.259,8.667,-22.339,5.981
-1.061,-0.122,-0.416,10.742,-43.701,12.146
-0.991,-0.153,-0.603,10.742,-54.626,14.404
-0.896,-0.188,-0.766,10.010,-54.993,13.794
-0.811,-0.210,-0.851,9.705,-46.448,12.390
-0.762,-0.223,-0.851,9.338,-31.189,10.681
-0.750,-0.213,-0.792,9.216,-13.794,7.935
-0.746,-0.182,-0.696,8.484,-1.282,3.418
-0.755,-0.148,-0.607,5.127,4.456,-1.709
-0.770,-0.119,-0.549,-0.610,5.432,-5.310
-0.776,-0.101,-0.521,-4.761,5.554,-6.531
-0.776,-0.073,-0.531,-5.615,7.751,-5.615
-0.769,-0.038,-0.537,-3.662,11.658,-3.540
-0.774,-0.011,-0.555,-2.991,17.395,-1.404
-0.778,0.012,-0.567,-3.540,24.231,1.221
-0.774,0.024,-0.565,-3.540,29.907,3.540
-0.793,0.018,-0.550,-1.587,33.447,6.409
-0.823,-0.008,-0.523,0.671,33.569,9.155
-0.851,-0.045,-0.490,1.709,29.541,10.620
-0.878,-0.094,-0.479,1.160,22.766,10.193
-0.903,-0.138,-0.490,0.610,15.747,7.996
-0.908,-0.157,-0.502,0.061,10.559,5.127
-0.905,-0.162,-0.530,0.916,7.874,3.479
-0.889,-0.152,-0.558,1.831,7.874,2.563
-0.864,-0.127,-0.580,3.662,7.690,3.113
-0.847,-0.112,-0.616,5.737,8.179,3.906
-0.832,-0.093,-0.631,6.836,9.338,3.906
-0.820,-0.083,-0.629,7.263,10.193,3.296
-0.820,-0.084,-0.625,6.287,11.108,2.197
-0.821,-0.086,-0.614,4.333,12.085,0.793
-0.826,-0.088,-0.591,2.625,12.146,-0.671
-0.832,-0.094,-0.574,1.831,11.719,-1.404
-0.842,-0.099,-0.557,1.587,11.414,-1.160
-0.846,-0.104,-0.541,2.014,11.719,-0.549
-0.849,-0.108,-0.520,3.235,12.695,0.977
-0.851,-0.113,-0.503,4.150,14.038,2.136
-0.850,-0.116,-0.488,4.578,14.709,2.686
-0.849,-0.115,-0.479,4.700,13.977,2.686
-0.851,-0.113,-0.473,3.845,11.780,2.075
-0.848,-0.110,-0.473,1.892,9.399,0.732
-0.849,-0.106,-0.475,0.977,7.202,-0.061
-0.849,-0.098,-0.482,1.404,5.737,0.183
-0.847,-0.087,-0.495,2.808,4.822,1.282
-0.840,-0.076,-0.508,3.967,4.333,2.197
-0.840,-0.068,-0.530,4.761,4.089,2.869
-0.834,-0.068,-0.547,5.066,4.639,3.296
-0.838,-0.073,-0.558,5.920,5.615,4.517
-0.837,-0.078,-0.554,5.676,7.324,5.066
-0.833,-0.083,-0.549,4.395,8.606,4.761
-0.826,-0.087,-0.546,3.235,8.789,4.028
-0.829,-0.087,-0.545,2.319,8.179,3.296
-0.836,-0.083,-0.541,0.977,8.057,2.197
-0.840,-0.090,-0.544,0.244,7.812,1.465
-0.844,-0.099,-0.544,-1.099,7.874,0.793
-0.846,-0.103,-0.536,-0.916,7.996,1.465
-0.850,-0.104,-0.531,1.221,8.911,2.747
-0.858,-0.101,-0.528,2.808,9.888,3.601
-0.851,-0.102,-0.520,1.404,9.338,2.869
-0.843,-0.107,-0.521,-0.671,7.324,1.465
-0.836,-0.113,-0.519,-2.075,5.554,-0.305
-0.834,-0.110,-0.521,-1.465,4.883,-0.732
-0.832,-0.104,-0.517,0.427,5.432,0.305
-0.832,-0.096,-0.515,2.441,6.714,1.953
-0.830,-0.095,-0.509,1.831,7.141,2.380
-0.835,-0.096,-0.509,-0.305,6.470,1.892
-0.847,-0.095,-0.509,-2.441,6.104,0.122
-0.857,-0.094,-0.503,-2.991,5.981,-1.404
-0.865,-0.088,-0.501,-2.380,5.981,-1.465
-0.874,-0.089,-0.498,-1.099,6.714,-0.244
-0.879,-0.095,-0.492,0.061,7.202,0.977
-0.882,-0.101,-0.484,1.648,6.897,2.563
-0.880,-0.105,-0.478,2.380,6.348,2.808
-0.880,-0.107,-0.475,2.319,5.554,2.136
-0.881,-0.105,-0.471,1.648,4.211,0.671
-0.881,-0.102,-0.476,0.671,2.380,-0.854
-0.879,-0.098,-0.484,-0.122,0.671,-2.014
-0.876,-0.091,-0.492,0.244,-0.305,-2.014
-0.869,-0.084,-0.500,0.488,-0.610,-2.014
-0.862,-0.082,-0.509,0.488,-0.732,-1.648
-0.856,-0.084,-0.516,0.549,-0.488,-1.160
-0.852,-0.080,-0.521,0.610,0.244,-0.610
-0.848,-0.084,-0.520,0.610,1.160,-0.549
-0.847,-0.088,-0.522,0.732,1.831,0.122
-0.844,-0.094,-0.521,0.610,2.441,0.183
-0.844,-0.101,-0.519,0.610,3.052,0.183
-0.841,-0.104,-0.514,0.305,3.174,-0.122
-0.843,-0.108,-0.506,-0.427,3.479,-0.671
-0.843,-0.108,-0.497,-0.854,3.662,-1.404
-0.847,-0.104,-0.493,-0.366,3.418,-1.343
-0.849,-0.102,-0.492,-0.244,2.563,-1.343
-0.852,-0.100,-0.497,0.427,2.136,-0.854
-0.853,-0.097,-0.499,1.404,2.014,-0.061
-0.857,-0.095,-0.499,1.831,1.892,0.427
-0.861,-0.094,-0.499,1.770,2.258,0.244
-0.865,-0.092,-0.499,1.770,2.380,0.183
-0.863,-0.090,-0.501,1.160,2.441,-0.244
-0.859,-0.089,-0.505,0.854,2.197,-0.549
-0.857,-0.086,-0.511,0.977,2.258,-0.488
-0.856,-0.082,-0.509,1.404,2.441,-0.366
-0.857,-0.080,-0.509,1.343,2.625,-0.305
-0.860,-0.080,-0.508,1.465,2.747,0.366
-0.860,-0.082,-0.503,1.221,2.991,0.549
-0.860,-0.086,-0.495,0.732,3.052,0.244
-0.859,-0.094,-0.492,0.366,2.930,0.305
-0.858,-0.101,-0.491,0.488,2.563,0.671
-0.858,-0.105,-0.493,0.732,2.441,1.038

-0.171,0.002,2.506,12.817,-92.102,-4.883
-0.182,-0.011,2.588,24.414,-124.756,2.136
-0.148,-0.011,2.617,34.241,-158.386,10.132
-0.051,0.001,2.607,40.222,-191.711,16.296
0.048,0.005,2.623,39.246,-221.069,19.348
0.150,0.017,2.666,27.893,-242.981,18.738
0.228,0.020,2.724,8.545,-261.108,15.808
0.280,0.003,2.769,-11.475,-280.029,13.000
0.255,0.008,2.772,-25.635,-304.199,12.878
0.195,0.045,2.634,-32.715,-337.097,15.320
0.222,0.031,2.508,-37.048,-372.742,22.705
0.279,0.008,2.360,-38.086,-403.381,34.424
0.297,-0.006,2.086,-35.767,-427.002,46.936
0.345,0.018,1.738,-28.687,-446.167,60.120
0.366,0.031,1.361,-15.015,-459.229,72.571
0.412,0.022,0.980,-1.099,-464.478,81.726
0.460,-0.053,0.710,9.827,-465.454,87.952
0.562,-0.135,0.607,13.794,-459.534,88.928
0.523,-0.204,0.480,9.827,-447.693,80.627
0.495,-0.268,0.274,4.211,-442.139,64.270
0.541,-0.323,0.117,1.099,-446.045,48.523
0.618,-0.342,-0.017,0.183,-449.829,34.729
0.641,-0.358,-0.266,2.502,-450.012,20.996
0.730,-0.381,-0.568,8.179,-454.224,10.803
0.892,-0.400,-0.890,19.836,-457.458,9.033
1.020,-0.389,-1.247,39.001,-447.754,12.512
1.059,-0.337,-1.699,65.735,-423.645,19.226
1.148,-0.208,-2.114,92.957,-393.311,24.231
1.236,-0.052,-2.460,109.924,-358.582,23.926
1.229,0.081,-2.774,109.741,-316.162,16.052
1.156,0.198,-3.000,92.163,-265.259,2.808
1.041,0.246,-3.019,61.707,-206.177,-11.841
0.847,0.236,-2.856,26.794,-135.986,-22.583
0.549,0.165,-2.507,-2.625,-60.059,-27.344
0.219,0.127,-2.003,-19.409,11.292,-26.428
-0.135,0.095,-1.419,-24.170,68.054,-25.146
-0.492,0.067,-0.797,-23.071,98.694,-28.503
-0.839,0.070,-0.283,-20.813,99.487,-36.316
-1.114,0.089,0.042,-20.020,76.233,-42.908
-1.305,0.076,0.168,-22.400,39.917,-43.457
-1.411,0.026,0.138,-23.621,5.615,-35.522
-1.431,-0.033,0.020,-19.470,-20.325,-22.461
-1.388,-0.089,-0.115,-9.888,-38.696,-7.568
-1.302,-0.106,-0.293,1.526,-49.438,6.042
-1.172,-0.145,-0.471,13.184,-54.321,17.944
-1.029,-0.180,-0.614,19.775,-53.650,26.733
-0.912,-0.216,-0.702,20.264,-50.537,29.602
-0.804,-0.242,-0.740,15.869,-47.729,25.513
-0.720,-0.242,-0.773,6.836,-43.640,15.991
-0.666,-0.236,-0.793,-2.563,-36.072,3.967
-0.632,-0.221,-0.777,-9.216,-24.292,-5.981
-0.625,-0.185,-0.729,-13.489,-10.071,-13.184
-0.636,-0.143,-0.669,-13.977,4.211,-16.602
-0.662,-0.098,-0.604,-10.864,18.677,-16.541
-0.698,-0.054,-0.535,-6.287,31.677,-14.221
-0.744,-0.011,-0.467,-2.991,40.833,-11.780
-0.798,0.026,-0.398,-0.916,44.922,-9.216
-0.856,0.055,-0.351,-0.305,44.006,-8.240
-0.898,0.080,-0.324,-1.526,38.452,-7.812
-0.935,0.057,-0.302,-2.625,27.954,-5.554
-0.996,-0.040,-0.340,-2.502,15.991,-2.747
-0.956,-0.012,-0.336,-3.235,5.493,0.854
-0.953,-0.086,-0.457,6.226,-0.549,6.653
-0.941,-0.134,-0.534,11.780,-1.831,8.301
-0.904,-0.121,-0.605,9.583,-1.221,8.850
-0.866,-0.116,-0.661,3.479,1.892,7.141
-0.828,-0.124,-0.695,-0.366,5.554,5.371
-0.792,-0.132,-0.702,-0.916,8.423,4.150
-0.779,-0.135,-0.694,0.916,10.803,3.357
-0.776,-0.132,-0.668,2.319,13.306,1.892
-0.790,-0.125,-0.628,2.014,15.808,0.488
-0.803,-0.125,-0.573,0.305,17.822,-0.916
-0.815,-0.132,-0.523,-1.709,18.860,-1.587
-0.833,-0.147,-0.481,-2.625,19.104,-1.953
-0.846,-0.149,-0.447,-0.732,17.761,-1.465
-0.858,-0.141,-0.429,0.854,15.747,-1.282
-0.868,-0.141,-0.436,1.831,13.611,-1.404
-0.872,-0.133,-0.439,1.953,11.414,-1.465
-0.871,-0.121,-0.442,1.831,9.583,-1.282
-0.872,-0.110,-0.450,2.563,7.751,-0.549
-0.871,-0.102,-0.463,4.822,5.981,1.526
-0.871,-0.094,-0.476,6.287,4.700,2.747
-0.867,-0.086,-0.486,6.409,3.845,3.113
-0.871,-0.085,-0.492,4.944,3.479,2.258
-0.877,-0.087,-0.495,2.502,4.211,0.671
-0.883,-0.085,-0.491,0.671,5.371,-0.427
-0.887,-0.080,-0.490,0.671,6.287,-0.549
-0.884,-0.079,-0.490,1.648,6.226,-0.061
-0.884,-0.082,-0.498,3.052,5.737,1.526
-0.880,-0.087,-0.504,4.578,5.371,2.991
-0.872,-0.094,-0.505,4.944,5.005,3.784
-0.870,-0.095,-0.506,3.723,4.578,3.113
-0.862,-0.103,-0.507,1.831,3.540,1.587
-0.853,-0.108,-0.507,-0.305,2.686,-0.488
-0.842,-0.107,-0.510,-0.671,1.892,-1.526
-0.838,-0.106,-0.514,0.183,1.770,-1.709
-0.831,-0.104,-0.511,0.793,2.502,-1.404
-0.831,-0.099,-0.515,1.038,2.808,-1.587
-0.830,-0.091,-0.521,1.099,2.869,-1.770
-0.836,-0.090,-0.523,0.732,3.662,-2.136
-0.844,-0.086,-0.521,0.793,5.188,-1.831
-0.848,-0.085,-0.512,1.221,7.141,-1.038
-0.849,-0.086,-0.504,1.404,8.728,-0.061
-0.852,-0.085,-0.497,0.977,9.399,0.549
-0.854,-0.085,-0.486,0.793,9.399,0.549
-0.863,-0.082,-0.473,0.183,8.850,-0.366
-0.870,-0.079,-0.463,-0.122,8.057,-1.282
-0.879,-0.076,-0.459,0.000,7.202,-1.282
-0.884,-0.075,-0.458,0.671,6.470,-0.549
-0.890,-0.077,-0.468,1.099,5.920,0.244
-0.886,-0.080,-0.475,1.831,5.371,1.465
-0.887,-0.085,-0.477,2.380,5.005,2.380
-0.887,-0.089,-0.475,2.808,4.883,2.625
-0.886,-0.087,-0.473,2.869,4.944,2.380
-0.880,-0.083,-0.474,2.502,4.822,2.014
-0.879,-0.078,-0.480,2.319,4.517,1.465
-0.877,-0.074,-0.487,1.892,4.333,1.404
-0.873,-0.078,-0.486,0.916,4.456,1.465
-0.867,-0.083,-0.485,0.671,4.761,1.770

0.285,0.061,2.328,29.358,-206.665,2.441
0.360,0.057,2.389,26.062,-224.854,5.127
0.415,0.038,2.433,20.508,-244.385,7.874
0.442,0.012,2.436,13.733,-264.038,12.024
0.438,0.008,2.384,7.996,-283.997,18.921
0.452,0.003,2.325,5.432,-304.871,27.771
0.448,0.001,2.204,3.479,-326.965,36.499
0.464,-0.003,1.998,-0.671,-347.656,44.861
0.510,-0.004,1.803,-4.578,-364.380,52.124
0.493,-0.014,1.563,-10.681,-374.146,57.068
0.479,-0.026,1.321,-18.860,-378.235,58.899
0.470,-0.078,1.167,-26.123,-379.272,59.753
0.350,-0.123,1.011,-34.729,-378.052,57.434
0.247,-0.168,0.827,-40.344,-381.714,51.025
0.234,-0.223,0.666,-39.673,-392.090,47.058
0.247,-0.254,0.499,-34.851,-401.978,47.058
0.266,-0.299,0.365,-27.100,-408.569,48.096
0.256,-0.331,0.156,-19.104,-414.429,48.401
0.296,-0.374,-0.032,-10.376,-421.143,46.204
0.309,-0.393,-0.236,0.366,-425.171,40.405
0.306,-0.415,-0.508,11.963,-425.476,31.128
0.316,-0.430,-0.833,26.550,-423.096,22.766
0.366,-0.423,-1.160,43.335,-414.307,17.334
0.395,-0.388,-1.494,61.707,-394.714,16.235
0.404,-0.333,-1.811,79.224,-363.586,19.470
0.378,-0.268,-2.043,94.055,-324.219,24.658
0.322,-0.193,-2.187,102.478,-284.302,25.818
0.280,-0.118,-2.220,101.013,-247.498,19.836
0.169,-0.090,-2.186,92.712,-215.759,7.751
0.098,-0.046,-2.094,78.979,-185.303,-4.395
0.032,0.008,-1.929,61.829,-156.433,-15.503
-0.088,0.044,-1.709,43.579,-124.512,-24.353
-0.242,0.109,-1.460,25.879,-90.088,-32.166
-0.407,0.132,-1.186,10.742,-57.922,-40.283
-0.570,0.165,-0.948,0.183,-33.569,-48.523
-0.711,0.198,-0.730,-6.653,-20.996,-53.894
-0.861,0.194,-0.534,-13.245,-18.005,-57.495
-0.976,0.182,-0.386,-16.174,-24.719,-56.580
-1.052,0.122,-0.299,-14.893,-38.208,-48.401
-1.097,0.060,-0.303,-10.010,-51.331,-34.668
-1.085,-0.010,-0.349,-2.686,-61.096,-18.066
-1.055,-0.081,-0.401,8.301,-64.880,-1.099
-1.006,-0.136,-0.482,20.813,-62.622,12.024
-0.929,-0.179,-0.571,28.992,-58.228,19.226
-0.843,-0.192,-0.666,27.832,-52.185,19.287
-0.756,-0.192,-0.718,19.226,-45.288,13.306
-0.708,-0.185,-0.761,8.484,-37.354,3.906
-0.687,-0.167,-0.780,1.038,-26.428,-3.723
-0.691,-0.135,-0.769,-2.014,-11.475,-7.812
-0.708,-0.100,-0.717,-1.526,7.690,-8.362
-0.735,-0.059,-0.636,1.221,28.564,-7.080
-0.769,-0.020,-0.543,4.150,45.105,-6.226
-0.813,0.011,-0.460,3.113,54.993,-6.958
-0.848,0.039,-0.398,-0.061,59.753,-8.545
-0.880,0.058,-0.359,-3.540,58.838,-10.681
-0.893,0.077,-0.353,-6.409,54.016,-11.841
-0.899,0.081,-0.355,-8.301,48.889,-10.803
-0.916,0.071,-0.353,-8.240,45.654,-7.141
-0.929,0.049,-0.356,-5.249,42.419,-1.953
-0.943,0.007,-0.368,-1.282,37.781,4.211
-0.943,-0.045,-0.386,0.793,32.471,8.911
-0.941,-0.094,-0.414,1.099,28.442,10.437
-0.941,-0.125,-0.446,-0.183,26.489,9.338
-0.922,-0.144,-0.470,-2.380,26.001,6.714
-0.912,-0.152,-0.485,-4.700,27.161,3.662
-0.904,-0.155,-0.478,-4.639,28.748,1.770
-0.899,-0.148,-0.450,-2.686,28.748,0.610
-0.909,-0.138,-0.422,0.183,26.489,0.122
-0.922,-0.134,-0.405,2.258,22.827,-0.671
-0.932,-0.128,-0.396,2.686,19.043,-1.648
-0.933,-0.122,-0.392,1.587,16.724,-2.930
-0.935,-0.110,-0.388,0.854,16.541,-3.296
-0.932,-0.092,-0.378,0.793,16.968,-3.479
-0.927,-0.076,-0.360,0.671,16.541,-3.357
-0.926,-0.070,-0.346,1.282,14.709,-2.930
-0.920,-0.066,-0.339,2.930,12.146,-2.258
-0.917,-0.057,-0.330,5.432,10.071,-0.916
-0.911,-0.051,-0.329,7.385,7.812,0.427
-0.904,-0.047,-0.334,6.836,4.944,0.977
-0.903,-0.041,-0.341,5.066,2.319,0.488
-0.907,-0.037,-0.349,3.357,0.488,-0.671
-0.909,-0.033,-0.358,1.953,0.061,-0.916
-0.914,-0.030,-0.363,1.282,0.366,-0.427
-0.918,-0.036,-0.374,2.197,0.061,0.977
-0.916,-0.046,-0.393,2.197,-0.610,2.197
-0.910,-0.057,-0.411,1.587,-0.610,2.625
-0.908,-0.072,-0.424,1.282,0.488,3.113
-0.900,-0.077,-0.427,1.526,1.770,3.662
-0.898,-0.075,-0.428,1.709,2.625,3.601
-0.894,-0.073,-0.426,1.587,3.052,3.113
-0.898,-0.075,-0.424,-0.061,3.357,1.709
-0.907,-0.076,-0.417,-1.160,4.089,0.916
-0.916,-0.077,-0.406,-0.793,4.883,0.671
-0.919,-0.080,-0.387,0.793,5.615,1.099
-0.925,-0.082,-0.382,2.563,5.615,1.770
-0.923,-0.085,-0.379,4.211,4.822,2.808
-0.921,-0.083,-0.383,4.456,2.930,3.174
-0.918,-0.082,-0.392,4.456,1.526,3.113
-0.913,-0.078,-0.404,4.700,0.671,2.869
-0.906,-0.073,-0.414,4.211,0.732,2.197
-0.905,-0.067,-0.422,3.113,1.160,1.221
-0.900,-0.062,-0.427,2.380,1.831,0.610
-0.899,-0.056,-0.433,1.526,3.113,0.122
-0.900,-0.053,-0.429,1.038,4.761,0.000
-0.902,-0.054,-0.420,0.366,6.958,0.183
-0.899,-0.056,-0.404,-0.366,8.728,0.366
-0.904,-0.056,-0.387,-0.366,9.521,0.671
-0.906,-0.055,-0.373,0.488,9.460,1.343
-0.911,-0.061,-0.362,0.610,8.240,1.221
-0.915,-0.069,-0.358,0.366,6.775,0.916
-0.917,-0.077,-0.356,0.183,5.676,0.916
-0.923,-0.081,-0.348,0.244,5.249,0.916
-0.929,-0.081,-0.344,0.244,5.127,0.854
-0.930,-0.083,-0.343,0.305,4.333,0.854
-0.930,-0.084,-0.351,0.244,3.357,0.610
-0.926,-0.083,-0.361,1.038,2.197,0.732
-0.923,-0.078,-0.373,2.441,1.465,1.221
-0.917,-0.074,-0.385,3.296,1.465,1.526
-0.914,-0.071,-0.395,3.418,1.648,1.953

1.079,0.163,-2.109,137.939,-464.233,1.404
1.273,0.169,-2.417,139.526,-477.661,-19.226
1.298,0.350,-2.700,120.300,-464.722,-33.386
1.121,0.387,-2.957,83.740,-412.109,-56.152
0.872,0.353,-2.987,40.955,-319.885,-75.745
0.597,0.391,-2.799,6.287,-197.510,-81.665
0.324,0.370,-2.284,-6.897,-74.646,-75.073
0.056,0.410,-1.650,-12.024,19.043,-58.289
-0.252,0.331,-0.991,-12.573,66.772,-37.292
-0.563,0.263,-0.521,-11.536,71.045,-16.724
-0.832,0.160,-0.293,-10.742,47.852,-0.244
-1.018,0.011,-0.267,-8.789,17.639,11.902
-1.103,-0.116,-0.314,-7.751,-3.784,18.799
-1.112,-0.202,-0.401,-9.216,-13.367,19.653
-1.033,-0.248,-0.515,-9.216,-18.250,16.968
-0.895,-0.273,-0.658,-6.958,-24.658,13.062
-0.772,-0.285,-0.816,-3.662,-30.273,11.292
-0.675,-0.291,-0.941,0.183,-28.992,10.620
-0.617,-0.276,-0.972,4.761,-19.531,9.216
-0.584,-0.203,-0.929,7.935,-5.554,5.371
-0.565,-0.112,-0.857,7.080,6.836,-1.038
-0.559,-0.035,-0.785,0.916,16.785,-7.507
-0.572,0.025,-0.722,-4.211,22.949,-12.024
-0.613,0.080,-0.669,-5.493,27.039,-12.512
-0.664,0.126,-0.623,-3.906,31.738,-9.949
-0.732,0.140,-0.564,-2.441,36.926,-6.226
-0.797,0.129,-0.496,-0.610,40.405,-2.197
-0.851,0.101,-0.450,1.770,40.344,1.465
-0.882,0.068,-0.441,4.578,35.278,5.005
-0.895,0.019,-0.473,4.883,28.076,7.935
-0.893,-0.035,-0.527,2.625,21.912,10.376
-0.874,-0.089,-0.587,0.793,18.799,12.024
-0.846,-0.129,-0.633,1.160,19.226,13.611
-0.808,-0.149,-0.670,1.892,21.912,14.221
-0.768,-0.158,-0.695,2.075,24.414,13.672
-0.733,-0.153,-0.695,1.892,26.306,11.780
-0.726,-0.145,-0.680,1.953,26.184,7.935
-0.740,-0.115,-0.659,2.991,23.743,3.052
-0.770,-0.088,-0.664,5.249,20.447,-1.221
-0.794,-0.052,-0.652,5.920,18.433,-3.967
-0.817,-0.019,-0.637,5.737,17.761,-4.150
-0.832,-0.008,-0.623,6.165,17.639,-2.563
-0.833,-0.002,-0.603,5.981,16.724,-0.366
-0.829,-0.003,-0.600,5.066,14.343,1.770
-0.823,-0.015,-0.609,3.967,11.353,3.967
-0.807,-0.028,-0.621,2.930,9.705,5.920
-0.792,-0.041,-0.625,2.991,9.583,7.568
-0.776,-0.053,-0.629,3.235,10.376,8.545
-0.770,-0.059,-0.625,2.625,11.353,7.629
-0.772,-0.068,-0.611,0.977,11.719,5.249
-0.778,-0.081,-0.590,-0.549,12.390,2.747
-0.790,-0.086,-0.564,-1.099,12.817,0.793
-0.807,-0.086,-0.542,0.244,12.512,-0.183
-0.819,-0.073,-0.527,1.892,11.658,-0.366
-0.833,-0.060,-0.521,2.747,10.559,-0.488
-0.839,-0.046,-0.524,2.930,9.399,-0.916
-0.840,-0.036,-0.529,2.625,8.545,-0.916
-0.836,-0.028,-0.542,1.953,7.324,-0.977
-0.831,-0.019,-0.562,1.221,5.676,-1.160
-0.824,-0.017,-0.582,0.427,4.089,-1.099
-0.812,-0.023,-0.602,-0.671,2.991,-1.160
-0.800,-0.036,-0.619,-1.709,2.808,-0.732
-0.786,-0.047,-0.632,-1.526,3.723,0.366
-0.772,-0.056,-0.636,-1.221,5.493,1.282
-0.765,-0.068,-0.639,-1.282,7.446,2.014
-0.761,-0.078,-0.631,-1.404,8.667,1.892
-0.761,-0.083,-0.630,-1.587,9.338,1.343
-0.763,-0.083,-0.629,-2.014,10.071,0.244
-0.774,-0.079,-0.619,-1.953,10.742,-0.305
-0.789,-0.076,-0.610,-1.221,11.597,-0.549
-0.805,-0.067,-0.601,0.061,11.841,-0.488
-0.820,-0.057,-0.597,1.038,11.414,-0.549
-0.830,-0.047,-0.589,0.671,10.925,-0.732
-0.840,-0.045,-0.578,-0.244,10.376,-0.854
-0.840,-0.040,-0.563,-0.732,9.338,-0.427
-0.838,-0.042,-0.560,-1.038,7.690,-0.061
-0.831,-0.043,-0.561,-0.671,5.737,0.977
-0.826,-0.046,-0.557,0.854,3.906,2.441
-0.825,-0.052,-0.563,2.441,3.052,3.296
-0.820,-0.055,-0.571,3.113,2.930,3.479
-0.816,-0.062,-0.576,2.747,3.357,3.113
-0.816,-0.069,-0.575,1.526,4.333,1.953
-0.813,-0.069,-0.573,1.038,5.249,0.793
-0.810,-0.069,-0.570,1.221,5.005,-0.427
-0.810,-0.067,-0.569,1.221,4.517,-1.221
-0.812,-0.063,-0.573,1.343,4.089,-1.343
-0.816,-0.062,-0.579,2.014,4.150,-1.343
-0.814,-0.058,-0.578,2.258,4.761,-1.343
-0.814,-0.051,-0.578,2.502,5.859,-1.160
-0.815,-0.040,-0.575,2.563,6.165,-0.916
-0.819,-0.029,-0.570,2.075,6.042,-0.854
-0.825,-0.020,-0.568,1.587,5.432,-0.793
-0.824,-0.019,-0.568,1.282,4.517,-0.061
-0.825,-0.028,-0.568,0.549,4.089,0.854
-0.825,-0.038,-0.567,0.427,4.272,1.648
-0.820,-0.047,-0.564,0.610,4.700,2.197
-0.815,-0.056,-0.558,0.366,5.188,2.136
-0.815,-0.060,-0.556,0.061,5.188,1.404
-0.818,-0.056,-0.560,0.793,4.578,0.488
-0.824,-0.048,-0.562,1.038,4.028,-0.305
-0.828,-0.040,-0.561,1.038,3.357,-0.549
-0.832,-0.037,-0.558,0.854,2.808,-0.488
-0.831,-0.041,-0.557,0.793,2.075,-0.305
-0.829,-0.047,-0.561,0.854,1.343,0.671
-0.825,-0.055,-0.564,1.587,0.854,1.770
-0.818,-0.060,-0.569,1.770,0.977,2.197
-0.816,-0.063,-0.573,2.380,1.648,2.197
-0.812,-0.061,-0.574,2.930,2.502,2.014
-0.812,-0.055,-0.572,2.991,3.052,1.648
-0.815,-0.052,-0.567,2.747,3.479,1.648
-0.814,-0.050,-0.564,2.686,3.296,1.587
-0.811,-0.048,-0.562,2.075,2.747,1.221
-0.810,-0.050,-0.562,1.892,2.014,0.977
-0.809,-0.051,-0.570,2.136,1.465,0.977
-0.809,-0.050,-0.574,2.747,1.038,1.404
-0.812,-0.049,-0.581,3.113,1.465,1.831
-0.811,-0.048,-0.583,3.235,2.441,1.770
-0.812,-0.043,-0.580,2.502,3.418,0.916
-0.812,-0.039,-0.572,1.282,3.967,0.000
